"SubNo"	"Hemisphere"	"ScalpLocation"	"CoilOrient"	"Block"	"Trial"	"Condition"	"Corr"	"Response"	"ACC"	"RT"	"Actual.orientation"	"Annoyance"	"Pain"	"Twitches"	"Visible.twitch"	"Av.RT.Prac"	"RT.Diff"	"Task"	"Congruence"	"Axes"	"HomLocation"	"RefLocation"
"1"	"1"	"1"	"23"	"SW"	1	1	"incon_r"	"n"	"n"	"1"	0.428144	"SW"	2	0	1	0	0.4346445	-0.00650049999999996	"Flanker"	"Incong"	"NE.SW"	"FC1.2"	"23"
"2"	"1"	"1"	"23"	"SW"	1	2	"incon_l"	"c"	"c"	"1"	0.489587	"SW"	2	0	1	0	0.4339483	0.0556387	"Flanker"	"Incong"	"NE.SW"	"FC1.2"	"23"
"3"	"1"	"1"	"23"	"SW"	1	3	"cong_r"	"n"	"n"	"1"	0.419005	"SW"	2	0	1	0	0.390825	0.02818	"Flanker"	"Cong"	"NE.SW"	"FC1.2"	"23"
"4"	"1"	"1"	"23"	"SW"	1	4	"cong_l"	"c"	"c"	"1"	0.348802	"SW"	2	0	1	0	0.4105801	-0.0617781000000001	"Flanker"	"Cong"	"NE.SW"	"FC1.2"	"23"
"5"	"1"	"1"	"23"	"SW"	1	5	"incon_r"	"n"	"n"	"1"	0.374758	"SW"	2	0	1	0	0.4346445	-0.0598865	"Flanker"	"Incong"	"NE.SW"	"FC1.2"	"23"
"6"	"1"	"1"	"23"	"S"	1	6	"incon_r"	"n"	"n"	"1"	0.331807	"S"	0	0	2	0	0.4346445	-0.1028375	"Flanker"	"Incong"	"N.S"	"FC1.2"	"23"
"7"	"1"	"1"	"23"	"S"	1	7	"cong_l"	"c"	"c"	"1"	0.357099	"S"	0	0	2	0	0.4105801	-0.0534811000000001	"Flanker"	"Cong"	"N.S"	"FC1.2"	"23"
"8"	"1"	"1"	"23"	"S"	1	8	"incon_l"	"c"	"c"	"1"	0.446972	"S"	0	0	2	0	0.4339483	0.0130237	"Flanker"	"Incong"	"N.S"	"FC1.2"	"23"
"9"	"1"	"1"	"23"	"S"	1	9	"cong_r"	"n"	"n"	"1"	0.376755	"S"	0	0	2	0	0.390825	-0.01407	"Flanker"	"Cong"	"N.S"	"FC1.2"	"23"
"10"	"1"	"1"	"23"	"S"	1	10	"cong_r"	"n"	"n"	"1"	0.38757	"S"	0	0	2	0	0.390825	-0.00325499999999995	"Flanker"	"Cong"	"N.S"	"FC1.2"	"23"
"11"	"1"	"1"	"23"	"W"	1	11	"cong_l"	"c"	"c"	"1"	0.414083	"W"	1	0	2	0	0.4105801	0.00350289999999992	"Flanker"	"Cong"	"E.W"	"FC1.2"	"23"
"12"	"1"	"1"	"23"	"W"	1	12	"incon_l"	"c"	"c"	"1"	0.455727	"W"	1	0	2	0	0.4339483	0.0217787	"Flanker"	"Incong"	"E.W"	"FC1.2"	"23"
"13"	"1"	"1"	"23"	"W"	1	13	"cong_l"	"c"	"c"	"1"	0.370011	"W"	1	0	2	0	0.4105801	-0.0405691000000001	"Flanker"	"Cong"	"E.W"	"FC1.2"	"23"
"14"	"1"	"1"	"23"	"W"	1	14	"incon_r"	"n"	"n"	"1"	0.331432	"W"	1	0	2	0	0.4346445	-0.1032125	"Flanker"	"Incong"	"E.W"	"FC1.2"	"23"
"15"	"1"	"1"	"23"	"W"	1	15	"cong_r"	"n"	"n"	"1"	0.549171	"W"	1	0	2	0	0.390825	0.158346	"Flanker"	"Cong"	"E.W"	"FC1.2"	"23"
"16"	"1"	"1"	"23"	"NW"	1	16	"incon_l"	"c"	"c"	"1"	0.414855	"NW"	0	0	1	0	0.4339483	-0.0190933	"Flanker"	"Incong"	"NW.SE"	"FC1.2"	"23"
"17"	"1"	"1"	"23"	"NW"	1	17	"incon_r"	"n"	"n"	"1"	0.360615	"NW"	0	0	1	0	0.4346445	-0.0740295	"Flanker"	"Incong"	"NW.SE"	"FC1.2"	"23"
"18"	"1"	"1"	"23"	"NW"	1	18	"cong_l"	"c"	"c"	"1"	0.418152	"NW"	0	0	1	0	0.4105801	0.00757189999999996	"Flanker"	"Cong"	"NW.SE"	"FC1.2"	"23"
"19"	"1"	"1"	"23"	"NW"	1	19	"cong_r"	"n"	"n"	"1"	0.348082	"NW"	0	0	1	0	0.390825	-0.042743	"Flanker"	"Cong"	"NW.SE"	"FC1.2"	"23"
"20"	"1"	"1"	"23"	"NW"	1	20	"incon_l"	"c"	"c"	"1"	0.377339	"NW"	0	0	1	0	0.4339483	-0.0566093	"Flanker"	"Incong"	"NW.SE"	"FC1.2"	"23"
"21"	"1"	"1"	"100"	"SW"	2	1	"incon_l"	"c"	"c"	"1"	0.477663	"SW"	4	1	6	5	0.4339483	0.0437147000000001	"Flanker"	"Incong"	"NE.SW"	"Inion"	"100"
"22"	"1"	"1"	"100"	"SW"	2	2	"incon_r"	"n"	"n"	"1"	0.39135	"SW"	4	1	6	5	0.4346445	-0.0432945	"Flanker"	"Incong"	"NE.SW"	"Inion"	"100"
"23"	"1"	"1"	"100"	"SW"	2	3	"cong_r"	"n"	"n"	"1"	0.465578	"SW"	4	1	6	5	0.390825	0.074753	"Flanker"	"Cong"	"NE.SW"	"Inion"	"100"
"24"	"1"	"1"	"100"	"SW"	2	4	"incon_l"	"c"	"c"	"1"	0.443629	"SW"	4	1	6	5	0.4339483	0.00968070000000004	"Flanker"	"Incong"	"NE.SW"	"Inion"	"100"
"25"	"1"	"1"	"100"	"SW"	2	5	"cong_l"	"c"	"c"	"1"	0.549326	"SW"	4	1	6	5	0.4105801	0.1387459	"Flanker"	"Cong"	"NE.SW"	"Inion"	"100"
"26"	"1"	"1"	"100"	"W"	2	6	"cong_l"	"c"	"c"	"1"	0.419093	"W"	3	1	6	5	0.4105801	0.00851289999999993	"Flanker"	"Cong"	"E.W"	"Inion"	"100"
"27"	"1"	"1"	"100"	"W"	2	7	"incon_r"	"n"	"n"	"1"	0.508526	"W"	3	1	6	5	0.4346445	0.0738815	"Flanker"	"Incong"	"E.W"	"Inion"	"100"
"28"	"1"	"1"	"100"	"W"	2	8	"incon_r"	"n"	"n"	"1"	0.454732	"W"	3	1	6	5	0.4346445	0.0200875	"Flanker"	"Incong"	"E.W"	"Inion"	"100"
"29"	"1"	"1"	"100"	"W"	2	9	"incon_l"	"c"	"c"	"1"	0.512379	"W"	3	1	6	5	0.4339483	0.0784307000000001	"Flanker"	"Incong"	"E.W"	"Inion"	"100"
"30"	"1"	"1"	"100"	"W"	2	10	"cong_r"	"n"	"n"	"1"	0.426077	"W"	3	1	6	5	0.390825	0.035252	"Flanker"	"Cong"	"E.W"	"Inion"	"100"
"31"	"1"	"1"	"100"	"NW"	2	11	"incon_l"	"c"	"c"	"1"	0.43551	"NW"	3	2	6	5	0.4339483	0.00156170000000005	"Flanker"	"Incong"	"NW.SE"	"Inion"	"100"
"32"	"1"	"1"	"100"	"NW"	2	12	"incon_r"	"n"	"n"	"1"	0.476493	"NW"	3	2	6	5	0.4346445	0.0418485	"Flanker"	"Incong"	"NW.SE"	"Inion"	"100"
"33"	"1"	"1"	"100"	"NW"	2	13	"cong_l"	"c"	"c"	"1"	0.505948	"NW"	3	2	6	5	0.4105801	0.0953678999999999	"Flanker"	"Cong"	"NW.SE"	"Inion"	"100"
"34"	"1"	"1"	"100"	"NW"	2	14	"cong_r"	"n"	"n"	"1"	0.499408	"NW"	3	2	6	5	0.390825	0.108583	"Flanker"	"Cong"	"NW.SE"	"Inion"	"100"
"35"	"1"	"1"	"100"	"NW"	2	15	"cong_l"	"c"	"c"	"1"	0.429063	"NW"	3	2	6	5	0.4105801	0.0184829	"Flanker"	"Cong"	"NW.SE"	"Inion"	"100"
"36"	"1"	"1"	"100"	"S"	2	16	"incon_r"	"n"	"n"	"1"	0.419418	"N"	5	4	7	5	0.4346445	-0.0152265	"Flanker"	"Incong"	"N.S"	"Inion"	"100"
"37"	"1"	"1"	"100"	"S"	2	17	"cong_r"	"n"	"n"	"1"	0.448534	"N"	5	4	7	5	0.390825	0.057709	"Flanker"	"Cong"	"N.S"	"Inion"	"100"
"38"	"1"	"1"	"100"	"S"	2	18	"incon_l"	"c"	"c"	"1"	0.490233	"N"	5	4	7	5	0.4339483	0.0562847	"Flanker"	"Incong"	"N.S"	"Inion"	"100"
"39"	"1"	"1"	"100"	"S"	2	19	"cong_l"	"c"	"c"	"1"	0.515845	"N"	5	4	7	5	0.4105801	0.1052649	"Flanker"	"Cong"	"N.S"	"Inion"	"100"
"40"	"1"	"1"	"100"	"S"	2	20	"cong_r"	"n"	"n"	"1"	0.449178	"N"	5	4	7	5	0.390825	0.058353	"Flanker"	"Cong"	"N.S"	"Inion"	"100"
"41"	"1"	"1"	"25"	"W"	3	1	"incon_r"	"n"	"n"	"1"	0.587108	"W"	1	0	2	0	0.4346445	0.1524635	"Flanker"	"Incong"	"E.W"	"C3.4"	"25"
"42"	"1"	"1"	"25"	"W"	3	2	"incon_r"	"n"	"n"	"1"	0.501164	"W"	1	0	2	0	0.4346445	0.0665195000000001	"Flanker"	"Incong"	"E.W"	"C3.4"	"25"
"43"	"1"	"1"	"25"	"W"	3	3	"cong_r"	"n"	"n"	"1"	0.430709	"W"	1	0	2	0	0.390825	0.039884	"Flanker"	"Cong"	"E.W"	"C3.4"	"25"
"44"	"1"	"1"	"25"	"W"	3	4	"cong_l"	"c"	"c"	"1"	0.428045	"W"	1	0	2	0	0.4105801	0.0174648999999999	"Flanker"	"Cong"	"E.W"	"C3.4"	"25"
"45"	"1"	"1"	"25"	"W"	3	5	"incon_l"	"c"	"c"	"1"	0.453664	"W"	1	0	2	0	0.4339483	0.0197157000000001	"Flanker"	"Incong"	"E.W"	"C3.4"	"25"
"46"	"1"	"1"	"25"	"SW"	3	6	"cong_l"	"c"	"c"	"1"	0.416798	"SW"	1	0	2	0	0.4105801	0.00621789999999994	"Flanker"	"Cong"	"NE.SW"	"C3.4"	"25"
"47"	"1"	"1"	"25"	"SW"	3	7	"cong_r"	"n"	"n"	"1"	0.410662	"SW"	1	0	2	0	0.390825	0.019837	"Flanker"	"Cong"	"NE.SW"	"C3.4"	"25"
"48"	"1"	"1"	"25"	"SW"	3	8	"incon_l"	"c"	"c"	"1"	0.340627	"SW"	1	0	2	0	0.4339483	-0.0933212999999999	"Flanker"	"Incong"	"NE.SW"	"C3.4"	"25"
"49"	"1"	"1"	"25"	"SW"	3	9	"cong_r"	"n"	"n"	"1"	0.318373	"SW"	1	0	2	0	0.390825	-0.072452	"Flanker"	"Cong"	"NE.SW"	"C3.4"	"25"
"50"	"1"	"1"	"25"	"SW"	3	10	"incon_r"	"n"	"n"	"1"	0.504156	"SW"	1	0	2	0	0.4346445	0.0695115000000001	"Flanker"	"Incong"	"NE.SW"	"C3.4"	"25"
"51"	"1"	"1"	"25"	"NW"	3	11	"cong_r"	"n"	"n"	"1"	0.356489	"NW"	1	0	1	0	0.390825	-0.034336	"Flanker"	"Cong"	"NW.SE"	"C3.4"	"25"
"52"	"1"	"1"	"25"	"NW"	3	12	"incon_r"	"n"	"n"	"1"	0.398453	"NW"	1	0	1	0	0.4346445	-0.0361915	"Flanker"	"Incong"	"NW.SE"	"C3.4"	"25"
"53"	"1"	"1"	"25"	"NW"	3	13	"cong_l"	"c"	"c"	"1"	0.408244	"NW"	1	0	1	0	0.4105801	-0.00233610000000006	"Flanker"	"Cong"	"NW.SE"	"C3.4"	"25"
"54"	"1"	"1"	"25"	"NW"	3	14	"incon_l"	"c"	"c"	"1"	0.450223	"NW"	1	0	1	0	0.4339483	0.0162747	"Flanker"	"Incong"	"NW.SE"	"C3.4"	"25"
"55"	"1"	"1"	"25"	"NW"	3	15	"cong_l"	"c"	"c"	"1"	0.41184	"NW"	1	0	1	0	0.4105801	0.00125989999999992	"Flanker"	"Cong"	"NW.SE"	"C3.4"	"25"
"56"	"1"	"1"	"25"	"S"	3	16	"incon_l"	"c"	"c"	"1"	0.39059	"S"	1	0	2	0	0.4339483	-0.0433583	"Flanker"	"Incong"	"N.S"	"C3.4"	"25"
"57"	"1"	"1"	"25"	"S"	3	17	"cong_l"	"c"	"c"	"1"	0.388172	"S"	1	0	2	0	0.4105801	-0.0224081	"Flanker"	"Cong"	"N.S"	"C3.4"	"25"
"58"	"1"	"1"	"25"	"S"	3	18	"incon_l"	"c"	"c"	"1"	0.446135	"S"	1	0	2	0	0.4339483	0.0121867000000001	"Flanker"	"Incong"	"N.S"	"C3.4"	"25"
"59"	"1"	"1"	"25"	"S"	3	19	"cong_r"	"n"	"n"	"1"	0.359746	"S"	1	0	2	0	0.390825	-0.031079	"Flanker"	"Cong"	"N.S"	"C3.4"	"25"
"60"	"1"	"1"	"25"	"S"	3	20	"incon_r"	"n"	"n"	"1"	0.386352	"S"	1	0	2	0	0.4346445	-0.0482925	"Flanker"	"Incong"	"N.S"	"C3.4"	"25"
"61"	"1"	"1"	"106"	"SW"	4	1	"incon_l"	"c"	"c"	"1"	0.404212	"SW"	2	1	3	0	0.4339483	-0.0297362999999999	"Flanker"	"Incong"	"NE.SW"	"V5"	"106"
"62"	"1"	"1"	"106"	"SW"	4	2	"cong_l"	"c"	"c"	"1"	0.399004	"SW"	2	1	3	0	0.4105801	-0.0115761	"Flanker"	"Cong"	"NE.SW"	"V5"	"106"
"63"	"1"	"1"	"106"	"SW"	4	3	"incon_l"	"c"	"c"	"1"	0.408036	"SW"	2	1	3	0	0.4339483	-0.0259122999999999	"Flanker"	"Incong"	"NE.SW"	"V5"	"106"
"64"	"1"	"1"	"106"	"SW"	4	4	"cong_r"	"n"	"n"	"1"	0.449609	"SW"	2	1	3	0	0.390825	0.058784	"Flanker"	"Cong"	"NE.SW"	"V5"	"106"
"65"	"1"	"1"	"106"	"SW"	4	5	"incon_r"	"n"	"n"	"1"	0.443501	"SW"	2	1	3	0	0.4346445	0.00885649999999999	"Flanker"	"Incong"	"NE.SW"	"V5"	"106"
"66"	"1"	"1"	"106"	"S"	4	6	"cong_l"	"c"	"c"	"1"	0.405634	"N"	3	3	3	5	0.4105801	-0.00494610000000006	"Flanker"	"Cong"	"N.S"	"V5"	"106"
"67"	"1"	"1"	"106"	"S"	4	7	"incon_r"	"n"	"n"	"1"	0.383201	"N"	3	3	3	5	0.4346445	-0.0514435	"Flanker"	"Incong"	"N.S"	"V5"	"106"
"68"	"1"	"1"	"106"	"S"	4	8	"cong_r"	"n"	"n"	"1"	0.424926	"N"	3	3	3	5	0.390825	0.034101	"Flanker"	"Cong"	"N.S"	"V5"	"106"
"69"	"1"	"1"	"106"	"S"	4	9	"incon_l"	"c"	"c"	"1"	0.434673	"N"	3	3	3	5	0.4339483	0.000724700000000023	"Flanker"	"Incong"	"N.S"	"V5"	"106"
"70"	"1"	"1"	"106"	"S"	4	10	"cong_l"	"c"	"c"	"1"	0.396386	"N"	3	3	3	5	0.4105801	-0.0141941	"Flanker"	"Cong"	"N.S"	"V5"	"106"
"71"	"1"	"1"	"106"	"W"	4	11	"incon_r"	"n"	"n"	"1"	0.450111	"W"	2	1	2	5	0.4346445	0.0154665	"Flanker"	"Incong"	"E.W"	"V5"	"106"
"72"	"1"	"1"	"106"	"W"	4	12	"incon_r"	"n"	"n"	"1"	0.459401	"W"	2	1	2	5	0.4346445	0.0247565	"Flanker"	"Incong"	"E.W"	"V5"	"106"
"73"	"1"	"1"	"106"	"W"	4	13	"incon_l"	"c"	"c"	"1"	0.421253	"W"	2	1	2	5	0.4339483	-0.0126953	"Flanker"	"Incong"	"E.W"	"V5"	"106"
"74"	"1"	"1"	"106"	"W"	4	14	"cong_l"	"c"	"c"	"1"	0.479479	"W"	2	1	2	5	0.4105801	0.0688988999999999	"Flanker"	"Cong"	"E.W"	"V5"	"106"
"75"	"1"	"1"	"106"	"W"	4	15	"cong_r"	"n"	"n"	"1"	0.473229	"W"	2	1	2	5	0.390825	0.082404	"Flanker"	"Cong"	"E.W"	"V5"	"106"
"76"	"1"	"1"	"106"	"NW"	4	16	"cong_r"	"n"	"n"	"1"	0.496897	"NW"	3	3	4	5	0.390825	0.106072	"Flanker"	"Cong"	"NW.SE"	"V5"	"106"
"77"	"1"	"1"	"106"	"NW"	4	17	"incon_r"	"n"	"n"	"1"	0.411344	"NW"	3	3	4	5	0.4346445	-0.0233005	"Flanker"	"Incong"	"NW.SE"	"V5"	"106"
"78"	"1"	"1"	"106"	"NW"	4	18	"cong_r"	"n"	"n"	"1"	0.404086	"NW"	3	3	4	5	0.390825	0.013261	"Flanker"	"Cong"	"NW.SE"	"V5"	"106"
"79"	"1"	"1"	"106"	"NW"	4	19	"incon_l"	"c"	"c"	"1"	0.493767	"NW"	3	3	4	5	0.4339483	0.0598187000000001	"Flanker"	"Incong"	"NW.SE"	"V5"	"106"
"80"	"1"	"1"	"106"	"NW"	4	20	"cong_l"	"c"	"c"	"1"	0.439612	"NW"	3	3	4	5	0.4105801	0.0290318999999999	"Flanker"	"Cong"	"NW.SE"	"V5"	"106"
"81"	"1"	"1"	"103"	"S"	5	1	"incon_r"	"n"	"n"	"1"	0.470093	"N"	4	4	4	5	0.4346445	0.0354485	"Flanker"	"Incong"	"N.S"	"LatIn"	"103"
"82"	"1"	"1"	"103"	"S"	5	2	"cong_r"	"n"	"n"	"1"	0.574229	"N"	4	4	4	5	0.390825	0.183404	"Flanker"	"Cong"	"N.S"	"LatIn"	"103"
"83"	"1"	"1"	"103"	"S"	5	3	"cong_r"	"n"	"n"	"1"	0.440199	"N"	4	4	4	5	0.390825	0.049374	"Flanker"	"Cong"	"N.S"	"LatIn"	"103"
"84"	"1"	"1"	"103"	"S"	5	4	"incon_l"	"c"	"c"	"1"	0.529893	"N"	4	4	4	5	0.4339483	0.0959447	"Flanker"	"Incong"	"N.S"	"LatIn"	"103"
"85"	"1"	"1"	"103"	"S"	5	5	"cong_l"	"c"	"c"	"1"	0.508009	"N"	4	4	4	5	0.4105801	0.0974289	"Flanker"	"Cong"	"N.S"	"LatIn"	"103"
"86"	"1"	"1"	"103"	"SW"	5	6	"incon_l"	"c"	"c"	"1"	0.478781	"NE"	4	4	5	5	0.4339483	0.0448327000000001	"Flanker"	"Incong"	"NE.SW"	"LatIn"	"103"
"87"	"1"	"1"	"103"	"SW"	5	7	"incon_r"	"n"	"n"	"1"	0.488261	"NE"	4	4	5	5	0.4346445	0.0536165	"Flanker"	"Incong"	"NE.SW"	"LatIn"	"103"
"88"	"1"	"1"	"103"	"SW"	5	8	"cong_l"	"c"	"c"	"1"	0.518509	"NE"	4	4	5	5	0.4105801	0.1079289	"Flanker"	"Cong"	"NE.SW"	"LatIn"	"103"
"89"	"1"	"1"	"103"	"SW"	5	9	"cong_r"	"n"	"n"	"1"	0.479652	"NE"	4	4	5	5	0.390825	0.088827	"Flanker"	"Cong"	"NE.SW"	"LatIn"	"103"
"90"	"1"	"1"	"103"	"SW"	5	10	"incon_r"	"n"	"n"	"1"	0.569492	"NE"	4	4	5	5	0.4346445	0.1348475	"Flanker"	"Incong"	"NE.SW"	"LatIn"	"103"
"91"	"1"	"1"	"103"	"W"	5	11	"cong_l"	"c"	"c"	"1"	0.403543	"W"	1	1	2	5	0.4105801	-0.00703710000000007	"Flanker"	"Cong"	"E.W"	"LatIn"	"103"
"92"	"1"	"1"	"103"	"W"	5	12	"cong_r"	"n"	"n"	"1"	0.444634	"W"	1	1	2	5	0.390825	0.053809	"Flanker"	"Cong"	"E.W"	"LatIn"	"103"
"93"	"1"	"1"	"103"	"W"	5	13	"cong_l"	"c"	"c"	"1"	0.454376	"W"	1	1	2	5	0.4105801	0.0437958999999999	"Flanker"	"Cong"	"E.W"	"LatIn"	"103"
"94"	"1"	"1"	"103"	"W"	5	14	"incon_r"	"n"	"n"	"1"	0.400247	"W"	1	1	2	5	0.4346445	-0.0343975	"Flanker"	"Incong"	"E.W"	"LatIn"	"103"
"95"	"1"	"1"	"103"	"W"	5	15	"incon_l"	"c"	"c"	"1"	0.426495	"W"	1	1	2	5	0.4339483	-0.00745329999999994	"Flanker"	"Incong"	"E.W"	"LatIn"	"103"
"96"	"1"	"1"	"103"	"NW"	5	16	"incon_l"	"c"	"c"	"1"	0.518029	"NW"	3	3	3	5	0.4339483	0.0840807	"Flanker"	"Incong"	"NW.SE"	"LatIn"	"103"
"97"	"1"	"1"	"103"	"NW"	5	17	"incon_l"	"c"	"c"	"1"	0.512251	"NW"	3	3	3	5	0.4339483	0.0783027000000001	"Flanker"	"Incong"	"NW.SE"	"LatIn"	"103"
"98"	"1"	"1"	"103"	"NW"	5	18	"cong_r"	"n"	"n"	"1"	0.505701	"NW"	3	3	3	5	0.390825	0.114876	"Flanker"	"Cong"	"NW.SE"	"LatIn"	"103"
"99"	"1"	"1"	"103"	"NW"	5	19	"cong_l"	"c"	"c"	"1"	0.467794	"NW"	3	3	3	5	0.4105801	0.0572138999999999	"Flanker"	"Cong"	"NW.SE"	"LatIn"	"103"
"100"	"1"	"1"	"103"	"NW"	5	20	"incon_r"	"n"	"n"	"1"	0.381084	"NW"	3	3	3	5	0.4346445	-0.0535605	"Flanker"	"Incong"	"NW.SE"	"LatIn"	"103"
"101"	"1"	"1"	"24"	"NW"	6	1	"incon_l"	"c"	"c"	"1"	0.509239	"NW"	1	1	4	2	0.4339483	0.0752907	"Flanker"	"Incong"	"NW.SE"	"FC5.6"	"24"
"102"	"1"	"1"	"24"	"NW"	6	2	"cong_l"	"c"	"c"	"1"	0.471625	"NW"	1	1	4	2	0.4105801	0.0610449	"Flanker"	"Cong"	"NW.SE"	"FC5.6"	"24"
"103"	"1"	"1"	"24"	"NW"	6	3	"cong_r"	"n"	"n"	"1"	0.59362	"NW"	1	1	4	2	0.390825	0.202795	"Flanker"	"Cong"	"NW.SE"	"FC5.6"	"24"
"104"	"1"	"1"	"24"	"NW"	6	4	"cong_l"	"c"	"c"	"1"	0.682923	"NW"	1	1	4	2	0.4105801	0.2723429	"Flanker"	"Cong"	"NW.SE"	"FC5.6"	"24"
"105"	"1"	"1"	"24"	"NW"	6	5	"incon_r"	"n"	"n"	"1"	0.48474	"NW"	1	1	4	2	0.4346445	0.0500955	"Flanker"	"Incong"	"NW.SE"	"FC5.6"	"24"
"106"	"1"	"1"	"24"	"SW"	6	6	"incon_l"	"c"	"c"	"1"	0.544175	"SW"	2	0	2	4	0.4339483	0.1102267	"Flanker"	"Incong"	"NE.SW"	"FC5.6"	"24"
"107"	"1"	"1"	"24"	"SW"	6	7	"cong_r"	"n"	"n"	"1"	0.459283	"SW"	2	0	2	4	0.390825	0.068458	"Flanker"	"Cong"	"NE.SW"	"FC5.6"	"24"
"108"	"1"	"1"	"24"	"SW"	6	8	"incon_r"	"n"	"n"	"1"	0.516231	"SW"	2	0	2	4	0.4346445	0.0815865	"Flanker"	"Incong"	"NE.SW"	"FC5.6"	"24"
"109"	"1"	"1"	"24"	"SW"	6	9	"cong_r"	"n"	"n"	"1"	0.509791	"SW"	2	0	2	4	0.390825	0.118966	"Flanker"	"Cong"	"NE.SW"	"FC5.6"	"24"
"110"	"1"	"1"	"24"	"SW"	6	10	"cong_l"	"c"	"c"	"1"	0.455651	"SW"	2	0	2	4	0.4105801	0.0450708999999999	"Flanker"	"Cong"	"NE.SW"	"FC5.6"	"24"
"111"	"1"	"1"	"24"	"W"	6	11	"cong_r"	"n"	"n"	"1"	0.406059	"W"	1	0	1	4	0.390825	0.015234	"Flanker"	"Cong"	"E.W"	"FC5.6"	"24"
"112"	"1"	"1"	"24"	"W"	6	12	"cong_l"	"c"	"c"	"1"	0.371074	"W"	1	0	1	4	0.4105801	-0.0395061	"Flanker"	"Cong"	"E.W"	"FC5.6"	"24"
"113"	"1"	"1"	"24"	"W"	6	13	"incon_r"	"n"	"n"	"1"	0.380368	"W"	1	0	1	4	0.4346445	-0.0542765	"Flanker"	"Incong"	"E.W"	"FC5.6"	"24"
"114"	"1"	"1"	"24"	"W"	6	14	"incon_l"	"c"	"c"	"1"	0.470235	"W"	1	0	1	4	0.4339483	0.0362867000000001	"Flanker"	"Incong"	"E.W"	"FC5.6"	"24"
"115"	"1"	"1"	"24"	"W"	6	15	"incon_l"	"c"	"c"	"1"	0.480331	"W"	1	0	1	4	0.4339483	0.0463827000000001	"Flanker"	"Incong"	"E.W"	"FC5.6"	"24"
"116"	"1"	"1"	"24"	"S"	6	16	"incon_r"	"n"	"n"	"1"	0.388272	"S"	3	2	5	3	0.4346445	-0.0463725	"Flanker"	"Incong"	"N.S"	"FC5.6"	"24"
"117"	"1"	"1"	"24"	"S"	6	17	"incon_l"	"c"	"c"	"1"	0.381757	"S"	3	2	5	3	0.4339483	-0.0521912999999999	"Flanker"	"Incong"	"N.S"	"FC5.6"	"24"
"118"	"1"	"1"	"24"	"S"	6	18	"cong_l"	"c"	"c"	"1"	0.423271	"S"	3	2	5	3	0.4105801	0.0126908999999999	"Flanker"	"Cong"	"N.S"	"FC5.6"	"24"
"119"	"1"	"1"	"24"	"S"	6	19	"cong_r"	"n"	"n"	"1"	0.465651	"S"	3	2	5	3	0.390825	0.074826	"Flanker"	"Cong"	"N.S"	"FC5.6"	"24"
"120"	"1"	"1"	"24"	"S"	6	20	"incon_r"	"n"	"n"	"1"	0.587361	"S"	3	2	5	3	0.4346445	0.1527165	"Flanker"	"Incong"	"N.S"	"FC5.6"	"24"
"121"	"1"	"1"	"20"	"S"	7	1	"cong_l"	"c"	"c"	"1"	0.454194	"S"	1	0	2	1	0.4105801	0.0436138999999999	"Flanker"	"Cong"	"N.S"	"AF"	"20"
"122"	"1"	"1"	"20"	"S"	7	2	"cong_r"	"n"	"n"	"1"	0.416257	"S"	1	0	2	1	0.390825	0.025432	"Flanker"	"Cong"	"N.S"	"AF"	"20"
"123"	"1"	"1"	"20"	"S"	7	3	"incon_l"	"c"	"c"	"1"	0.378045	"S"	1	0	2	1	0.4339483	-0.0559032999999999	"Flanker"	"Incong"	"N.S"	"AF"	"20"
"124"	"1"	"1"	"20"	"S"	7	4	"incon_l"	"c"	"c"	"1"	0.451457	"S"	1	0	2	1	0.4339483	0.0175087	"Flanker"	"Incong"	"N.S"	"AF"	"20"
"125"	"1"	"1"	"20"	"S"	7	5	"incon_r"	"n"	"n"	"1"	0.413262	"S"	1	0	2	1	0.4346445	-0.0213825	"Flanker"	"Incong"	"N.S"	"AF"	"20"
"126"	"1"	"1"	"20"	"NW"	7	6	"incon_r"	"n"	"n"	"1"	0.360125	"NW"	1	0	1	0	0.4346445	-0.0745195	"Flanker"	"Incong"	"NW.SE"	"AF"	"20"
"127"	"1"	"1"	"20"	"NW"	7	7	"incon_l"	"c"	"c"	"1"	0.341114	"NW"	1	0	1	0	0.4339483	-0.0928343	"Flanker"	"Incong"	"NW.SE"	"AF"	"20"
"128"	"1"	"1"	"20"	"NW"	7	8	"cong_l"	"c"	"c"	"1"	0.335141	"NW"	1	0	1	0	0.4105801	-0.0754391	"Flanker"	"Cong"	"NW.SE"	"AF"	"20"
"129"	"1"	"1"	"20"	"NW"	7	9	"cong_r"	"n"	"n"	"1"	0.32887	"NW"	1	0	1	0	0.390825	-0.061955	"Flanker"	"Cong"	"NW.SE"	"AF"	"20"
"130"	"1"	"1"	"20"	"NW"	7	10	"incon_r"	"n"	"n"	"1"	0.258502	"NW"	1	0	1	0	0.4346445	-0.1761425	"Flanker"	"Incong"	"NW.SE"	"AF"	"20"
"131"	"1"	"1"	"20"	"W"	7	11	"cong_l"	"c"	"c"	"1"	0.367993	"W"	1	1	2	0	0.4105801	-0.0425871	"Flanker"	"Cong"	"E.W"	"AF"	"20"
"132"	"1"	"1"	"20"	"W"	7	12	"cong_r"	"n"	"n"	"1"	0.293305	"W"	1	1	2	0	0.390825	-0.09752	"Flanker"	"Cong"	"E.W"	"AF"	"20"
"133"	"1"	"1"	"20"	"W"	7	13	"incon_r"	"n"	"n"	"1"	0.51166	"W"	1	1	2	0	0.4346445	0.0770155	"Flanker"	"Incong"	"E.W"	"AF"	"20"
"134"	"1"	"1"	"20"	"W"	7	14	"incon_l"	"c"	"c"	"1"	0.408755	"W"	1	1	2	0	0.4339483	-0.0251933	"Flanker"	"Incong"	"E.W"	"AF"	"20"
"135"	"1"	"1"	"20"	"W"	7	15	"cong_l"	"c"	"c"	"1"	0.370556	"W"	1	1	2	0	0.4105801	-0.0400241000000001	"Flanker"	"Cong"	"E.W"	"AF"	"20"
"136"	"1"	"1"	"20"	"SW"	7	16	"incon_r"	"n"	"n"	"1"	0.385032	"SW"	1	0	1	0	0.4346445	-0.0496125	"Flanker"	"Incong"	"NE.SW"	"AF"	"20"
"137"	"1"	"1"	"20"	"SW"	7	17	"cong_l"	"c"	"c"	"1"	0.330798	"SW"	1	0	1	0	0.4105801	-0.0797821000000001	"Flanker"	"Cong"	"NE.SW"	"AF"	"20"
"138"	"1"	"1"	"20"	"SW"	7	18	"incon_l"	"c"	"c"	"1"	0.388337	"SW"	1	0	1	0	0.4339483	-0.0456113	"Flanker"	"Incong"	"NE.SW"	"AF"	"20"
"139"	"1"	"1"	"20"	"SW"	7	19	"cong_r"	"n"	"n"	"1"	0.334232	"SW"	1	0	1	0	0.390825	-0.056593	"Flanker"	"Cong"	"NE.SW"	"AF"	"20"
"140"	"1"	"1"	"20"	"SW"	7	20	"cong_r"	"n"	"n"	"1"	0.375973	"SW"	1	0	1	0	0.390825	-0.014852	"Flanker"	"Cong"	"NE.SW"	"AF"	"20"
"141"	"1"	"1"	"108"	"S"	8	1	"cong_l"	"c"	"c"	"1"	0.407175	"S"	3	1	4	5	0.4105801	-0.00340510000000005	"Flanker"	"Cong"	"N.S"	"TPJ"	"108"
"142"	"1"	"1"	"108"	"S"	8	2	"incon_l"	"c"	"c"	"1"	0.41745	"S"	3	1	4	5	0.4339483	-0.0164983	"Flanker"	"Incong"	"N.S"	"TPJ"	"108"
"143"	"1"	"1"	"108"	"S"	8	3	"cong_l"	"c"	"c"	"1"	0.363121	"S"	3	1	4	5	0.4105801	-0.0474591	"Flanker"	"Cong"	"N.S"	"TPJ"	"108"
"144"	"1"	"1"	"108"	"S"	8	4	"cong_r"	"n"	"n"	"1"	0.341297	"S"	3	1	4	5	0.390825	-0.049528	"Flanker"	"Cong"	"N.S"	"TPJ"	"108"
"145"	"1"	"1"	"108"	"S"	8	5	"incon_r"	"n"	"n"	"1"	0.574194	"S"	3	1	4	5	0.4346445	0.1395495	"Flanker"	"Incong"	"N.S"	"TPJ"	"108"
"146"	"1"	"1"	"108"	"SW"	8	6	"incon_r"	"n"	"n"	"1"	0.425332	"SW"	1	1	3	0	0.4346445	-0.0093125	"Flanker"	"Incong"	"NE.SW"	"TPJ"	"108"
"147"	"1"	"1"	"108"	"SW"	8	7	"incon_l"	"c"	"c"	"1"	0.385549	"SW"	1	1	3	0	0.4339483	-0.0483993	"Flanker"	"Incong"	"NE.SW"	"TPJ"	"108"
"148"	"1"	"1"	"108"	"SW"	8	8	"cong_r"	"n"	"n"	"1"	0.304647	"SW"	1	1	3	0	0.390825	-0.086178	"Flanker"	"Cong"	"NE.SW"	"TPJ"	"108"
"149"	"1"	"1"	"108"	"SW"	8	9	"incon_l"	"c"	"c"	"1"	0.357794	"SW"	1	1	3	0	0.4339483	-0.0761543	"Flanker"	"Incong"	"NE.SW"	"TPJ"	"108"
"150"	"1"	"1"	"108"	"SW"	8	10	"cong_l"	"c"	"c"	"1"	0.415967	"SW"	1	1	3	0	0.4105801	0.00538689999999992	"Flanker"	"Cong"	"NE.SW"	"TPJ"	"108"
"151"	"1"	"1"	"108"	"NW"	8	11	"cong_l"	"c"	"c"	"1"	0.404052	"NW"	2	1	4	4	0.4105801	-0.00652810000000004	"Flanker"	"Cong"	"NW.SE"	"TPJ"	"108"
"152"	"1"	"1"	"108"	"NW"	8	12	"cong_r"	"n"	"n"	"1"	0.398514	"NW"	2	1	4	4	0.390825	0.007689	"Flanker"	"Cong"	"NW.SE"	"TPJ"	"108"
"153"	"1"	"1"	"108"	"NW"	8	13	"cong_r"	"n"	"n"	"1"	0.487677	"NW"	2	1	4	4	0.390825	0.096852	"Flanker"	"Cong"	"NW.SE"	"TPJ"	"108"
"154"	"1"	"1"	"108"	"NW"	8	14	"incon_r"	"n"	"n"	"1"	0.450794	"NW"	2	1	4	4	0.4346445	0.0161495	"Flanker"	"Incong"	"NW.SE"	"TPJ"	"108"
"155"	"1"	"1"	"108"	"NW"	8	15	"incon_l"	"c"	"c"	"1"	0.491767	"NW"	2	1	4	4	0.4339483	0.0578187000000001	"Flanker"	"Incong"	"NW.SE"	"TPJ"	"108"
"156"	"1"	"1"	"108"	"W"	8	16	"incon_l"	"c"	"c"	"1"	0.500735	"E"	1	1	2	3	0.4339483	0.0667867000000001	"Flanker"	"Incong"	"E.W"	"TPJ"	"108"
"157"	"1"	"1"	"108"	"W"	8	17	"incon_r"	"n"	"n"	"1"	0.431554	"E"	1	1	2	3	0.4346445	-0.0030905	"Flanker"	"Incong"	"E.W"	"TPJ"	"108"
"158"	"1"	"1"	"108"	"W"	8	18	"cong_r"	"n"	"n"	"1"	0.456775	"E"	1	1	2	3	0.390825	0.06595	"Flanker"	"Cong"	"E.W"	"TPJ"	"108"
"159"	"1"	"1"	"108"	"W"	8	19	"incon_r"	"n"	"n"	"1"	0.46629	"E"	1	1	2	3	0.4346445	0.0316455	"Flanker"	"Incong"	"E.W"	"TPJ"	"108"
"160"	"1"	"1"	"108"	"W"	8	20	"cong_l"	"c"	"c"	"1"	0.427967	"E"	1	1	2	3	0.4105801	0.0173868999999999	"Flanker"	"Cong"	"E.W"	"TPJ"	"108"
"161"	"1"	"1"	"19"	"SW"	9	1	"cong_r"	"n"	"n"	"1"	0.415359	"SW"	2	1	2	0	0.390825	0.024534	"Flanker"	"Cong"	"NE.SW"	"FP"	"19"
"162"	"1"	"1"	"19"	"SW"	9	2	"incon_r"	"n"	"n"	"1"	0.457071	"SW"	2	1	2	0	0.4346445	0.0224265	"Flanker"	"Incong"	"NE.SW"	"FP"	"19"
"163"	"1"	"1"	"19"	"SW"	9	3	"cong_l"	"c"	"c"	"1"	0.40257	"SW"	2	1	2	0	0.4105801	-0.00801010000000008	"Flanker"	"Cong"	"NE.SW"	"FP"	"19"
"164"	"1"	"1"	"19"	"SW"	9	4	"incon_l"	"c"	"c"	"1"	0.412654	"SW"	2	1	2	0	0.4339483	-0.0212942999999999	"Flanker"	"Incong"	"NE.SW"	"FP"	"19"
"165"	"1"	"1"	"19"	"SW"	9	5	"incon_l"	"c"	"c"	"1"	0.358311	"SW"	2	1	2	0	0.4339483	-0.0756373	"Flanker"	"Incong"	"NE.SW"	"FP"	"19"
"166"	"1"	"1"	"19"	"S"	9	6	"incon_r"	"n"	"n"	"1"	0.403864	"S"	3	4	4	1	0.4346445	-0.0307805	"Flanker"	"Incong"	"N.S"	"FP"	"19"
"167"	"1"	"1"	"19"	"S"	9	7	"cong_l"	"c"	"c"	"1"	0.461468	"S"	3	4	4	1	0.4105801	0.0508878999999999	"Flanker"	"Cong"	"N.S"	"FP"	"19"
"168"	"1"	"1"	"19"	"S"	9	8	"incon_l"	"c"	"c"	"1"	0.503649	"S"	3	4	4	1	0.4339483	0.0697007000000001	"Flanker"	"Incong"	"N.S"	"FP"	"19"
"169"	"1"	"1"	"19"	"S"	9	9	"incon_r"	"n"	"n"	"1"	0.497339	"S"	3	4	4	1	0.4346445	0.0626945	"Flanker"	"Incong"	"N.S"	"FP"	"19"
"170"	"1"	"1"	"19"	"S"	9	10	"cong_r"	"n"	"n"	"1"	0.379477	"S"	3	4	4	1	0.390825	-0.011348	"Flanker"	"Cong"	"N.S"	"FP"	"19"
"171"	"1"	"1"	"19"	"W"	9	11	"incon_r"	"n"	"n"	"1"	0.354857	"W"	2	2	2	1	0.4346445	-0.0797875	"Flanker"	"Incong"	"E.W"	"FP"	"19"
"172"	"1"	"1"	"19"	"W"	9	12	"cong_r"	"n"	"n"	"1"	0.364489	"W"	2	2	2	1	0.390825	-0.026336	"Flanker"	"Cong"	"E.W"	"FP"	"19"
"173"	"1"	"1"	"19"	"W"	9	13	"cong_l"	"c"	"c"	"1"	0.358406	"W"	2	2	2	1	0.4105801	-0.0521741000000001	"Flanker"	"Cong"	"E.W"	"FP"	"19"
"174"	"1"	"1"	"19"	"W"	9	14	"cong_l"	"c"	"c"	"1"	0.384262	"W"	2	2	2	1	0.4105801	-0.0263181000000001	"Flanker"	"Cong"	"E.W"	"FP"	"19"
"175"	"1"	"1"	"19"	"W"	9	15	"incon_l"	"c"	"c"	"1"	0.426275	"W"	2	2	2	1	0.4339483	-0.00767329999999994	"Flanker"	"Incong"	"E.W"	"FP"	"19"
"176"	"1"	"1"	"19"	"NW"	9	16	"cong_r"	"n"	"n"	"1"	0.355412	"SE"	1	1	1	0	0.390825	-0.035413	"Flanker"	"Cong"	"NW.SE"	"FP"	"19"
"177"	"1"	"1"	"19"	"NW"	9	17	"cong_l"	"c"	"c"	"1"	0.317048	"SE"	1	1	1	0	0.4105801	-0.0935321000000001	"Flanker"	"Cong"	"NW.SE"	"FP"	"19"
"178"	"1"	"1"	"19"	"NW"	9	18	"incon_r"	"n"	"n"	"1"	0.311244	"SE"	1	1	1	0	0.4346445	-0.1234005	"Flanker"	"Incong"	"NW.SE"	"FP"	"19"
"179"	"1"	"1"	"19"	"NW"	9	19	"cong_r"	"n"	"n"	"1"	0.304729	"SE"	1	1	1	0	0.390825	-0.086096	"Flanker"	"Cong"	"NW.SE"	"FP"	"19"
"180"	"1"	"1"	"19"	"NW"	9	20	"incon_l"	"c"	"c"	"1"	0.346641	"SE"	1	1	1	0	0.4339483	-0.0873073	"Flanker"	"Incong"	"NW.SE"	"FP"	"19"
"181"	"1"	"1"	"21"	"NW"	10	1	"incon_l"	"c"	"c"	"1"	0.321909	"SE"	1	0	1	0	0.4339483	-0.1120393	"Flanker"	"Incong"	"NW.SE"	"F3.4"	"21"
"182"	"1"	"1"	"21"	"NW"	10	2	"cong_l"	"c"	"c"	"1"	0.364512	"SE"	1	0	1	0	0.4105801	-0.0460681000000001	"Flanker"	"Cong"	"NW.SE"	"F3.4"	"21"
"183"	"1"	"1"	"21"	"NW"	10	3	"cong_r"	"n"	"n"	"1"	0.374415	"SE"	1	0	1	0	0.390825	-0.01641	"Flanker"	"Cong"	"NW.SE"	"F3.4"	"21"
"184"	"1"	"1"	"21"	"NW"	10	4	"incon_r"	"n"	"n"	"1"	0.464439	"SE"	1	0	1	0	0.4346445	0.0297945	"Flanker"	"Incong"	"NW.SE"	"F3.4"	"21"
"185"	"1"	"1"	"21"	"NW"	10	5	"incon_r"	"n"	"n"	"1"	0.505971	"SE"	1	0	1	0	0.4346445	0.0713265	"Flanker"	"Incong"	"NW.SE"	"F3.4"	"21"
"186"	"1"	"1"	"21"	"SW"	10	6	"cong_l"	"c"	"c"	"1"	0.380571	"SW"	1	0	1	0	0.4105801	-0.0300091000000001	"Flanker"	"Cong"	"NE.SW"	"F3.4"	"21"
"187"	"1"	"1"	"21"	"SW"	10	7	"incon_r"	"n"	"n"	"1"	0.342748	"SW"	1	0	1	0	0.4346445	-0.0918965	"Flanker"	"Incong"	"NE.SW"	"F3.4"	"21"
"188"	"1"	"1"	"21"	"SW"	10	8	"incon_l"	"c"	"c"	"1"	0.38805	"SW"	1	0	1	0	0.4339483	-0.0458982999999999	"Flanker"	"Incong"	"NE.SW"	"F3.4"	"21"
"189"	"1"	"1"	"21"	"SW"	10	9	"cong_r"	"n"	"n"	"1"	0.349566	"SW"	1	0	1	0	0.390825	-0.041259	"Flanker"	"Cong"	"NE.SW"	"F3.4"	"21"
"190"	"1"	"1"	"21"	"SW"	10	10	"cong_r"	"n"	"n"	"1"	0.391314	"SW"	1	0	1	0	0.390825	0.000489000000000017	"Flanker"	"Cong"	"NE.SW"	"F3.4"	"21"
"191"	"1"	"1"	"21"	"W"	10	11	"incon_r"	"n"	"n"	"1"	0.375292	"W"	1	0	1	0	0.4346445	-0.0593525	"Flanker"	"Incong"	"E.W"	"F3.4"	"21"
"192"	"1"	"1"	"21"	"W"	10	12	"cong_r"	"n"	"n"	"1"	0.352906	"W"	1	0	1	0	0.390825	-0.037919	"Flanker"	"Cong"	"E.W"	"F3.4"	"21"
"193"	"1"	"1"	"21"	"W"	10	13	"incon_l"	"c"	"c"	"1"	0.378515	"W"	1	0	1	0	0.4339483	-0.0554333	"Flanker"	"Incong"	"E.W"	"F3.4"	"21"
"194"	"1"	"1"	"21"	"W"	10	14	"cong_l"	"c"	"c"	"1"	0.420844	"W"	1	0	1	0	0.4105801	0.0102638999999999	"Flanker"	"Cong"	"E.W"	"F3.4"	"21"
"195"	"1"	"1"	"21"	"W"	10	15	"cong_l"	"c"	"c"	"1"	0.39813	"W"	1	0	1	0	0.4105801	-0.0124501000000001	"Flanker"	"Cong"	"E.W"	"F3.4"	"21"
"196"	"1"	"1"	"21"	"S"	10	16	"cong_r"	"n"	"n"	"1"	0.320374	"S"	1	0	1	0	0.390825	-0.070451	"Flanker"	"Cong"	"N.S"	"F3.4"	"21"
"197"	"1"	"1"	"21"	"S"	10	17	"cong_l"	"c"	"c"	"1"	0.346549	"S"	1	0	1	0	0.4105801	-0.0640311000000001	"Flanker"	"Cong"	"N.S"	"F3.4"	"21"
"198"	"1"	"1"	"21"	"S"	10	18	"incon_l"	"c"	"n"	"0"	0.308097	"S"	1	0	1	0	0.4339483	-0.1258513	"Flanker"	"Incong"	"N.S"	"F3.4"	"21"
"199"	"1"	"1"	"21"	"S"	10	19	"incon_l"	"c"	"c"	"1"	0.350379	"S"	1	0	1	0	0.4339483	-0.0835693	"Flanker"	"Incong"	"N.S"	"F3.4"	"21"
"200"	"1"	"1"	"21"	"S"	10	20	"incon_r"	"n"	"n"	"1"	0.455536	"S"	1	0	1	0	0.4346445	0.0208915	"Flanker"	"Incong"	"N.S"	"F3.4"	"21"
"201"	"1"	"1"	"29"	"SW"	11	1	"incon_l"	"c"	"c"	"1"	0.516622	"SW"	0	0	1	0	0.4339483	0.0826737000000001	"Flanker"	"Incong"	"NE.SW"	"P3.4"	"29"
"202"	"1"	"1"	"29"	"SW"	11	2	"cong_r"	"n"	"n"	"1"	0.47827	"SW"	0	0	1	0	0.390825	0.087445	"Flanker"	"Cong"	"NE.SW"	"P3.4"	"29"
"203"	"1"	"1"	"29"	"SW"	11	3	"incon_r"	"n"	"n"	"1"	0.488139	"SW"	0	0	1	0	0.4346445	0.0534945	"Flanker"	"Incong"	"NE.SW"	"P3.4"	"29"
"204"	"1"	"1"	"29"	"SW"	11	4	"incon_l"	"c"	"c"	"1"	0.450093	"SW"	0	0	1	0	0.4339483	0.0161447000000001	"Flanker"	"Incong"	"NE.SW"	"P3.4"	"29"
"205"	"1"	"1"	"29"	"SW"	11	5	"cong_l"	"c"	"c"	"1"	0.379816	"SW"	0	0	1	0	0.4105801	-0.0307641000000001	"Flanker"	"Cong"	"NE.SW"	"P3.4"	"29"
"206"	"1"	"1"	"29"	"NW"	11	6	"cong_l"	"c"	"c"	"1"	0.584481	"NW"	0	0	1	0	0.4105801	0.1739009	"Flanker"	"Cong"	"NW.SE"	"P3.4"	"29"
"207"	"1"	"1"	"29"	"NW"	11	7	"incon_l"	"c"	"c"	"1"	0.402148	"NW"	0	0	1	0	0.4339483	-0.0318002999999999	"Flanker"	"Incong"	"NW.SE"	"P3.4"	"29"
"208"	"1"	"1"	"29"	"NW"	11	8	"incon_r"	"n"	"n"	"1"	0.427918	"NW"	0	0	1	0	0.4346445	-0.00672649999999997	"Flanker"	"Incong"	"NW.SE"	"P3.4"	"29"
"209"	"1"	"1"	"29"	"NW"	11	9	"cong_r"	"n"	"n"	"1"	0.405982	"NW"	0	0	1	0	0.390825	0.015157	"Flanker"	"Cong"	"NW.SE"	"P3.4"	"29"
"210"	"1"	"1"	"29"	"NW"	11	10	"incon_r"	"n"	"n"	"1"	0.400036	"NW"	0	0	1	0	0.4346445	-0.0346085	"Flanker"	"Incong"	"NW.SE"	"P3.4"	"29"
"211"	"1"	"1"	"29"	"S"	11	11	"cong_l"	"c"	"c"	"1"	0.401678	"S"	0	0	1	0	0.4105801	-0.00890210000000008	"Flanker"	"Cong"	"N.S"	"P3.4"	"29"
"212"	"1"	"1"	"29"	"S"	11	12	"incon_l"	"c"	"c"	"1"	0.411592	"S"	0	0	1	0	0.4339483	-0.0223562999999999	"Flanker"	"Incong"	"N.S"	"P3.4"	"29"
"213"	"1"	"1"	"29"	"S"	11	13	"incon_r"	"n"	"n"	"1"	0.405396	"S"	0	0	1	0	0.4346445	-0.0292485	"Flanker"	"Incong"	"N.S"	"P3.4"	"29"
"214"	"1"	"1"	"29"	"S"	11	14	"cong_l"	"c"	"c"	"1"	0.383085	"S"	0	0	1	0	0.4105801	-0.0274951000000001	"Flanker"	"Cong"	"N.S"	"P3.4"	"29"
"215"	"1"	"1"	"29"	"S"	11	15	"cong_r"	"n"	"n"	"1"	0.376783	"S"	0	0	1	0	0.390825	-0.014042	"Flanker"	"Cong"	"N.S"	"P3.4"	"29"
"216"	"1"	"1"	"29"	"W"	11	16	"incon_l"	"c"	"c"	"1"	0.448391	"W"	0	0	1	0	0.4339483	0.0144427	"Flanker"	"Incong"	"E.W"	"P3.4"	"29"
"217"	"1"	"1"	"29"	"W"	11	17	"incon_r"	"n"	"n"	"1"	0.362343	"W"	0	0	1	0	0.4346445	-0.0723015	"Flanker"	"Incong"	"E.W"	"P3.4"	"29"
"218"	"1"	"1"	"29"	"W"	11	18	"cong_r"	"n"	"n"	"1"	0.389387	"W"	0	0	1	0	0.390825	-0.00143799999999999	"Flanker"	"Cong"	"E.W"	"P3.4"	"29"
"219"	"1"	"1"	"29"	"W"	11	19	"cong_l"	"c"	"c"	"1"	0.349594	"W"	0	0	1	0	0.4105801	-0.0609861	"Flanker"	"Cong"	"E.W"	"P3.4"	"29"
"220"	"1"	"1"	"29"	"W"	11	20	"cong_r"	"n"	"n"	"1"	0.375428	"W"	0	0	1	0	0.390825	-0.015397	"Flanker"	"Cong"	"E.W"	"P3.4"	"29"
"221"	"1"	"1"	"1"	"NW"	12	1	"cong_l"	"c"	"c"	"1"	0.402421	"SE"	0	0	0	0	0.4105801	-0.00815910000000009	"Flanker"	"Cong"	"NW.SE"	"FZ"	"2"
"222"	"1"	"1"	"1"	"NW"	12	2	"incon_r"	"n"	"n"	"1"	0.39624	"SE"	0	0	0	0	0.4346445	-0.0384045	"Flanker"	"Incong"	"NW.SE"	"FZ"	"2"
"223"	"1"	"1"	"1"	"NW"	12	3	"incon_l"	"c"	"c"	"1"	0.406275	"SE"	0	0	0	0	0.4339483	-0.0276733	"Flanker"	"Incong"	"NW.SE"	"FZ"	"2"
"224"	"1"	"1"	"1"	"NW"	12	4	"cong_r"	"n"	"n"	"1"	0.351642	"SE"	0	0	0	0	0.390825	-0.039183	"Flanker"	"Cong"	"NW.SE"	"FZ"	"2"
"225"	"1"	"1"	"1"	"NW"	12	5	"cong_l"	"c"	"c"	"1"	0.457592	"SE"	0	0	0	0	0.4105801	0.0470118999999999	"Flanker"	"Cong"	"NW.SE"	"FZ"	"2"
"226"	"1"	"1"	"1"	"W"	12	6	"cong_r"	"n"	"n"	"1"	0.448225	"W"	0	0	0	0	0.390825	0.0574	"Flanker"	"Cong"	"E.W"	"FZ"	"2"
"227"	"1"	"1"	"1"	"W"	12	7	"cong_l"	"c"	"c"	"1"	0.521902	"W"	0	0	0	0	0.4105801	0.1113219	"Flanker"	"Cong"	"E.W"	"FZ"	"2"
"228"	"1"	"1"	"1"	"W"	12	8	"incon_r"	"n"	"n"	"1"	0.403995	"W"	0	0	0	0	0.4346445	-0.0306495	"Flanker"	"Incong"	"E.W"	"FZ"	"2"
"229"	"1"	"1"	"1"	"W"	12	9	"incon_r"	"n"	"n"	"1"	0.461334	"W"	0	0	0	0	0.4346445	0.0266895	"Flanker"	"Incong"	"E.W"	"FZ"	"2"
"230"	"1"	"1"	"1"	"W"	12	10	"incon_l"	"c"	"c"	"1"	0.439459	"W"	0	0	0	0	0.4339483	0.00551070000000004	"Flanker"	"Incong"	"E.W"	"FZ"	"2"
"231"	"1"	"1"	"1"	"SW"	12	11	"incon_l"	"c"	"c"	"1"	0.424617	"SW"	0	0	0	0	0.4339483	-0.00933129999999993	"Flanker"	"Incong"	"NE.SW"	"FZ"	"2"
"232"	"1"	"1"	"1"	"SW"	12	12	"cong_l"	"c"	"c"	"1"	0.404377	"SW"	0	0	0	0	0.4105801	-0.00620310000000007	"Flanker"	"Cong"	"NE.SW"	"FZ"	"2"
"233"	"1"	"1"	"1"	"SW"	12	13	"incon_l"	"c"	"c"	"1"	0.460714	"SW"	0	0	0	0	0.4339483	0.0267657000000001	"Flanker"	"Incong"	"NE.SW"	"FZ"	"2"
"234"	"1"	"1"	"1"	"SW"	12	14	"cong_r"	"n"	"n"	"1"	0.409235	"SW"	0	0	0	0	0.390825	0.01841	"Flanker"	"Cong"	"NE.SW"	"FZ"	"2"
"235"	"1"	"1"	"1"	"SW"	12	15	"incon_r"	"n"	"n"	"1"	0.531827	"SW"	0	0	0	0	0.4346445	0.0971825000000001	"Flanker"	"Incong"	"NE.SW"	"FZ"	"2"
"236"	"1"	"1"	"1"	"S"	12	16	"cong_r"	"n"	"n"	"1"	0.430491	"S"	0	0	0	0	0.390825	0.039666	"Flanker"	"Cong"	"N.S"	"FZ"	"2"
"237"	"1"	"1"	"1"	"S"	12	17	"incon_l"	"c"	"c"	"1"	0.42416	"S"	0	0	0	0	0.4339483	-0.00978829999999997	"Flanker"	"Incong"	"N.S"	"FZ"	"2"
"238"	"1"	"1"	"1"	"S"	12	18	"cong_r"	"n"	"n"	"1"	0.386192	"S"	0	0	0	0	0.390825	-0.004633	"Flanker"	"Cong"	"N.S"	"FZ"	"2"
"239"	"1"	"1"	"1"	"S"	12	19	"incon_r"	"n"	"n"	"1"	0.460011	"S"	0	0	0	0	0.4346445	0.0253665	"Flanker"	"Incong"	"N.S"	"FZ"	"2"
"240"	"1"	"1"	"1"	"S"	12	20	"cong_l"	"c"	"c"	"1"	0.405756	"S"	0	0	0	0	0.4105801	-0.00482410000000005	"Flanker"	"Cong"	"N.S"	"FZ"	"2"
"241"	"1"	"1"	"104"	"SW"	13	1	"incon_r"	"n"	"n"	"1"	0.48517	"NE"	2	2	4	3	0.4346445	0.0505255	"Flanker"	"Incong"	"NE.SW"	"LatOc"	"104"
"242"	"1"	"1"	"104"	"SW"	13	2	"cong_r"	"n"	"n"	"1"	0.526488	"NE"	2	2	4	3	0.390825	0.135663	"Flanker"	"Cong"	"NE.SW"	"LatOc"	"104"
"243"	"1"	"1"	"104"	"SW"	13	3	"cong_l"	"c"	"c"	"1"	0.344676	"NE"	2	2	4	3	0.4105801	-0.0659041000000001	"Flanker"	"Cong"	"NE.SW"	"LatOc"	"104"
"244"	"1"	"1"	"104"	"SW"	13	4	"incon_l"	"c"	"c"	"1"	0.434735	"NE"	2	2	4	3	0.4339483	0.000786700000000029	"Flanker"	"Incong"	"NE.SW"	"LatOc"	"104"
"245"	"1"	"1"	"104"	"SW"	13	5	"incon_r"	"n"	"n"	"1"	0.367662	"NE"	2	2	4	3	0.4346445	-0.0669825	"Flanker"	"Incong"	"NE.SW"	"LatOc"	"104"
"246"	"1"	"1"	"104"	"NW"	13	6	"incon_r"	"n"	"n"	"1"	0.563703	"NW"	3	2	6	5	0.4346445	0.1290585	"Flanker"	"Incong"	"NW.SE"	"LatOc"	"104"
"247"	"1"	"1"	"104"	"NW"	13	7	"incon_l"	"c"	"c"	"1"	0.589532	"NW"	3	2	6	5	0.4339483	0.1555837	"Flanker"	"Incong"	"NW.SE"	"LatOc"	"104"
"248"	"1"	"1"	"104"	"NW"	13	8	"cong_r"	"n"	"n"	"1"	0.567385	"NW"	3	2	6	5	0.390825	0.17656	"Flanker"	"Cong"	"NW.SE"	"LatOc"	"104"
"249"	"1"	"1"	"104"	"NW"	13	9	"cong_r"	"n"	"n"	"1"	0.562355	"NW"	3	2	6	5	0.390825	0.17153	"Flanker"	"Cong"	"NW.SE"	"LatOc"	"104"
"250"	"1"	"1"	"104"	"NW"	13	10	"cong_l"	"c"	"c"	"1"	0.62009	"NW"	3	2	6	5	0.4105801	0.2095099	"Flanker"	"Cong"	"NW.SE"	"LatOc"	"104"
"251"	"1"	"1"	"104"	"S"	13	11	"incon_r"	"n"	"n"	"1"	0.614511	"S"	5	2	7	5	0.4346445	0.1798665	"Flanker"	"Incong"	"N.S"	"LatOc"	"104"
"252"	"1"	"1"	"104"	"S"	13	12	"incon_l"	"c"	"c"	"1"	0.672128	"S"	5	2	7	5	0.4339483	0.2381797	"Flanker"	"Incong"	"N.S"	"LatOc"	"104"
"253"	"1"	"1"	"104"	"S"	13	13	"cong_l"	"c"	"c"	"1"	0.649881	"S"	5	2	7	5	0.4105801	0.2393009	"Flanker"	"Cong"	"N.S"	"LatOc"	"104"
"254"	"1"	"1"	"104"	"S"	13	14	"cong_l"	"c"	"c"	"1"	0.675482	"S"	5	2	7	5	0.4105801	0.2649019	"Flanker"	"Cong"	"N.S"	"LatOc"	"104"
"255"	"1"	"1"	"104"	"S"	13	15	"cong_r"	"n"	"n"	"1"	0.68576	"S"	5	2	7	5	0.390825	0.294935	"Flanker"	"Cong"	"N.S"	"LatOc"	"104"
"256"	"1"	"1"	"104"	"W"	13	16	"cong_r"	"n"	"n"	"1"	0.544166	"E"	3	2	3	5	0.390825	0.153341	"Flanker"	"Cong"	"E.W"	"LatOc"	"104"
"257"	"1"	"1"	"104"	"W"	13	17	"cong_l"	"c"	"c"	"1"	0.506231	"E"	3	2	3	5	0.4105801	0.0956508999999999	"Flanker"	"Cong"	"E.W"	"LatOc"	"104"
"258"	"1"	"1"	"104"	"W"	13	18	"incon_l"	"c"	"c"	"1"	0.62827	"E"	3	2	3	5	0.4339483	0.1943217	"Flanker"	"Incong"	"E.W"	"LatOc"	"104"
"259"	"1"	"1"	"104"	"W"	13	19	"incon_r"	"n"	"n"	"1"	0.573986	"E"	3	2	3	5	0.4346445	0.1393415	"Flanker"	"Incong"	"E.W"	"LatOc"	"104"
"260"	"1"	"1"	"104"	"W"	13	20	"incon_l"	"c"	"c"	"1"	0.519351	"E"	3	2	3	5	0.4339483	0.0854027000000001	"Flanker"	"Incong"	"E.W"	"LatOc"	"104"
"261"	"1"	"1"	"31"	"NW"	14	1	"incon_r"	"n"	"n"	"1"	0.389991	"NW"	1	0	1	0	0.4346445	-0.0446535	"Flanker"	"Incong"	"NW.SE"	"PO3.4"	"31"
"262"	"1"	"1"	"31"	"NW"	14	2	"cong_r"	"n"	"n"	"1"	0.367997	"NW"	1	0	1	0	0.390825	-0.022828	"Flanker"	"Cong"	"NW.SE"	"PO3.4"	"31"
"263"	"1"	"1"	"31"	"NW"	14	3	"cong_l"	"c"	"c"	"1"	0.489748	"NW"	1	0	1	0	0.4105801	0.0791679	"Flanker"	"Cong"	"NW.SE"	"PO3.4"	"31"
"264"	"1"	"1"	"31"	"NW"	14	4	"incon_l"	"c"	"c"	"1"	0.451428	"NW"	1	0	1	0	0.4339483	0.0174797	"Flanker"	"Incong"	"NW.SE"	"PO3.4"	"31"
"265"	"1"	"1"	"31"	"NW"	14	5	"cong_r"	"n"	"n"	"1"	0.429294	"NW"	1	0	1	0	0.390825	0.038469	"Flanker"	"Cong"	"NW.SE"	"PO3.4"	"31"
"266"	"1"	"1"	"31"	"S"	14	6	"incon_r"	"n"	"n"	"1"	0.388817	"S"	1	0	1	0	0.4346445	-0.0458275	"Flanker"	"Incong"	"N.S"	"PO3.4"	"31"
"267"	"1"	"1"	"31"	"S"	14	7	"cong_l"	"c"	"c"	"1"	0.445169	"S"	1	0	1	0	0.4105801	0.0345888999999999	"Flanker"	"Cong"	"N.S"	"PO3.4"	"31"
"268"	"1"	"1"	"31"	"S"	14	8	"incon_l"	"c"	"c"	"1"	0.471061	"S"	1	0	1	0	0.4339483	0.0371127000000001	"Flanker"	"Incong"	"N.S"	"PO3.4"	"31"
"269"	"1"	"1"	"31"	"S"	14	9	"incon_r"	"n"	"n"	"1"	0.49655	"S"	1	0	1	0	0.4346445	0.0619055	"Flanker"	"Incong"	"N.S"	"PO3.4"	"31"
"270"	"1"	"1"	"31"	"S"	14	10	"cong_r"	"n"	"n"	"1"	0.413743	"S"	1	0	1	0	0.390825	0.022918	"Flanker"	"Cong"	"N.S"	"PO3.4"	"31"
"271"	"1"	"1"	"31"	"W"	14	11	"incon_r"	"n"	"n"	"1"	0.430957	"W"	0	0	0	0	0.4346445	-0.00368750000000001	"Flanker"	"Incong"	"E.W"	"PO3.4"	"31"
"272"	"1"	"1"	"31"	"W"	14	12	"cong_l"	"c"	"c"	"1"	0.408929	"W"	0	0	0	0	0.4105801	-0.00165110000000007	"Flanker"	"Cong"	"E.W"	"PO3.4"	"31"
"273"	"1"	"1"	"31"	"W"	14	13	"cong_r"	"n"	"n"	"1"	0.402502	"W"	0	0	0	0	0.390825	0.011677	"Flanker"	"Cong"	"E.W"	"PO3.4"	"31"
"274"	"1"	"1"	"31"	"W"	14	14	"incon_l"	"c"	"c"	"1"	0.396016	"W"	0	0	0	0	0.4339483	-0.0379323	"Flanker"	"Incong"	"E.W"	"PO3.4"	"31"
"275"	"1"	"1"	"31"	"W"	14	15	"cong_l"	"c"	"c"	"1"	0.469803	"W"	0	0	0	0	0.4105801	0.0592229	"Flanker"	"Cong"	"E.W"	"PO3.4"	"31"
"276"	"1"	"1"	"31"	"SW"	14	16	"incon_l"	"c"	"c"	"1"	0.680271	"SW"	0	0	0	0	0.4339483	0.2463227	"Flanker"	"Incong"	"NE.SW"	"PO3.4"	"31"
"277"	"1"	"1"	"31"	"SW"	14	17	"cong_l"	"c"	"c"	"1"	0.386255	"SW"	0	0	0	0	0.4105801	-0.0243251	"Flanker"	"Cong"	"NE.SW"	"PO3.4"	"31"
"278"	"1"	"1"	"31"	"SW"	14	18	"incon_l"	"c"	"c"	"1"	0.444196	"SW"	0	0	0	0	0.4339483	0.0102477	"Flanker"	"Incong"	"NE.SW"	"PO3.4"	"31"
"279"	"1"	"1"	"31"	"SW"	14	19	"incon_r"	"n"	"n"	"1"	0.422085	"SW"	0	0	0	0	0.4346445	-0.0125595	"Flanker"	"Incong"	"NE.SW"	"PO3.4"	"31"
"280"	"1"	"1"	"31"	"SW"	14	20	"cong_r"	"n"	"n"	"1"	0.447646	"SW"	0	0	0	0	0.390825	0.056821	"Flanker"	"Cong"	"NE.SW"	"PO3.4"	"31"
"281"	"1"	"1"	"26"	"S"	15	1	"cong_r"	"n"	"n"	"1"	0.366293	"S"	1	0	4	0	0.390825	-0.024532	"Flanker"	"Cong"	"N.S"	"T7.8"	"26"
"282"	"1"	"1"	"26"	"S"	15	2	"cong_l"	"c"	"c"	"1"	0.472484	"S"	1	0	4	0	0.4105801	0.0619039	"Flanker"	"Cong"	"N.S"	"T7.8"	"26"
"283"	"1"	"1"	"26"	"S"	15	3	"incon_r"	"n"	"n"	"1"	0.433825	"S"	1	0	4	0	0.4346445	-0.000819499999999973	"Flanker"	"Incong"	"N.S"	"T7.8"	"26"
"284"	"1"	"1"	"26"	"S"	15	4	"cong_l"	"c"	"c"	"1"	0.427801	"S"	1	0	4	0	0.4105801	0.0172208999999999	"Flanker"	"Cong"	"N.S"	"T7.8"	"26"
"285"	"1"	"1"	"26"	"S"	15	5	"incon_l"	"c"	"c"	"1"	0.469909	"S"	1	0	4	0	0.4339483	0.0359607000000001	"Flanker"	"Incong"	"N.S"	"T7.8"	"26"
"286"	"1"	"1"	"26"	"NW"	15	6	"incon_l"	"c"	"c"	"1"	0.497964	"NW"	1	1	4	2	0.4339483	0.0640157000000001	"Flanker"	"Incong"	"NW.SE"	"T7.8"	"26"
"287"	"1"	"1"	"26"	"NW"	15	7	"cong_r"	"n"	"n"	"1"	0.411906	"NW"	1	1	4	2	0.390825	0.021081	"Flanker"	"Cong"	"NW.SE"	"T7.8"	"26"
"288"	"1"	"1"	"26"	"NW"	15	8	"cong_r"	"n"	"n"	"1"	0.373265	"NW"	1	1	4	2	0.390825	-0.01756	"Flanker"	"Cong"	"NW.SE"	"T7.8"	"26"
"289"	"1"	"1"	"26"	"NW"	15	9	"incon_r"	"n"	"n"	"1"	0.527136	"NW"	1	1	4	2	0.4346445	0.0924915000000001	"Flanker"	"Incong"	"NW.SE"	"T7.8"	"26"
"290"	"1"	"1"	"26"	"NW"	15	10	"cong_l"	"c"	"c"	"1"	0.55316	"NW"	1	1	4	2	0.4105801	0.1425799	"Flanker"	"Cong"	"NW.SE"	"T7.8"	"26"
"291"	"1"	"1"	"26"	"SW"	15	11	"incon_l"	"c"	"c"	"1"	0.406178	"SW"	2	2	4	0	0.4339483	-0.0277703	"Flanker"	"Incong"	"NE.SW"	"T7.8"	"26"
"292"	"1"	"1"	"26"	"SW"	15	12	"incon_r"	"n"	"n"	"1"	0.463373	"SW"	2	2	4	0	0.4346445	0.0287285	"Flanker"	"Incong"	"NE.SW"	"T7.8"	"26"
"293"	"1"	"1"	"26"	"SW"	15	13	"cong_r"	"n"	"n"	"1"	0.41238	"SW"	2	2	4	0	0.390825	0.021555	"Flanker"	"Cong"	"NE.SW"	"T7.8"	"26"
"294"	"1"	"1"	"26"	"SW"	15	14	"cong_l"	"c"	"c"	"1"	0.472516	"SW"	2	2	4	0	0.4105801	0.0619358999999999	"Flanker"	"Cong"	"NE.SW"	"T7.8"	"26"
"295"	"1"	"1"	"26"	"SW"	15	15	"incon_l"	"c"	"c"	"1"	0.508861	"SW"	2	2	4	0	0.4339483	0.0749127000000001	"Flanker"	"Incong"	"NE.SW"	"T7.8"	"26"
"296"	"1"	"1"	"26"	"W"	15	16	"cong_l"	"c"	"c"	"1"	0.392434	"E"	1	1	3	2	0.4105801	-0.0181461000000001	"Flanker"	"Cong"	"E.W"	"T7.8"	"26"
"297"	"1"	"1"	"26"	"W"	15	17	"incon_l"	"c"	"c"	"1"	0.370264	"E"	1	1	3	2	0.4339483	-0.0636843	"Flanker"	"Incong"	"E.W"	"T7.8"	"26"
"298"	"1"	"1"	"26"	"W"	15	18	"incon_r"	"n"	"n"	"1"	0.459725	"E"	1	1	3	2	0.4346445	0.0250805	"Flanker"	"Incong"	"E.W"	"T7.8"	"26"
"299"	"1"	"1"	"26"	"W"	15	19	"incon_r"	"n"	"n"	"1"	0.517603	"E"	1	1	3	2	0.4346445	0.0829585	"Flanker"	"Incong"	"E.W"	"T7.8"	"26"
"300"	"1"	"1"	"26"	"W"	15	20	"cong_r"	"n"	"n"	"1"	0.431671	"E"	1	1	3	2	0.390825	0.040846	"Flanker"	"Cong"	"E.W"	"T7.8"	"26"
"301"	"1"	"1"	"4"	"W"	16	1	"incon_l"	"c"	"c"	"1"	0.477935	"W"	2	2	2	5	0.4339483	0.0439867	"Flanker"	"Incong"	"E.W"	"OZ"	"4"
"302"	"1"	"1"	"4"	"W"	16	2	"cong_l"	"c"	"c"	"1"	0.407589	"W"	2	2	2	5	0.4105801	-0.00299110000000008	"Flanker"	"Cong"	"E.W"	"OZ"	"4"
"303"	"1"	"1"	"4"	"W"	16	3	"cong_r"	"n"	"n"	"1"	0.401073	"W"	2	2	2	5	0.390825	0.010248	"Flanker"	"Cong"	"E.W"	"OZ"	"4"
"304"	"1"	"1"	"4"	"W"	16	4	"incon_r"	"n"	"n"	"1"	0.443267	"W"	2	2	2	5	0.4346445	0.00862250000000003	"Flanker"	"Incong"	"E.W"	"OZ"	"4"
"305"	"1"	"1"	"4"	"W"	16	5	"cong_r"	"n"	"n"	"1"	0.373281	"W"	2	2	2	5	0.390825	-0.017544	"Flanker"	"Cong"	"E.W"	"OZ"	"4"
"306"	"1"	"1"	"4"	"S"	16	6	"cong_l"	"c"	"c"	"1"	0.388717	"N"	1	0	1	2	0.4105801	-0.0218631000000001	"Flanker"	"Cong"	"N.S"	"OZ"	"4"
"307"	"1"	"1"	"4"	"S"	16	7	"cong_l"	"c"	"c"	"1"	0.366321	"N"	1	0	1	2	0.4105801	-0.0442591000000001	"Flanker"	"Cong"	"N.S"	"OZ"	"4"
"308"	"1"	"1"	"4"	"S"	16	8	"cong_r"	"n"	"n"	"1"	0.375818	"N"	1	0	1	2	0.390825	-0.015007	"Flanker"	"Cong"	"N.S"	"OZ"	"4"
"309"	"1"	"1"	"4"	"S"	16	9	"incon_r"	"n"	"n"	"1"	0.433864	"N"	1	0	1	2	0.4346445	-0.000780499999999962	"Flanker"	"Incong"	"N.S"	"OZ"	"4"
"310"	"1"	"1"	"4"	"S"	16	10	"incon_l"	"c"	"c"	"1"	0.479227	"N"	1	0	1	2	0.4339483	0.0452787000000001	"Flanker"	"Incong"	"N.S"	"OZ"	"4"
"311"	"1"	"1"	"4"	"SW"	16	11	"cong_l"	"c"	"c"	"1"	0.38664	"SW"	1	1	1	0	0.4105801	-0.0239401000000001	"Flanker"	"Cong"	"NE.SW"	"OZ"	"4"
"312"	"1"	"1"	"4"	"SW"	16	12	"incon_r"	"n"	"n"	"1"	0.411391	"SW"	1	1	1	0	0.4346445	-0.0232535	"Flanker"	"Incong"	"NE.SW"	"OZ"	"4"
"313"	"1"	"1"	"4"	"SW"	16	13	"incon_l"	"c"	"c"	"1"	0.341022	"SW"	1	1	1	0	0.4339483	-0.0929263	"Flanker"	"Incong"	"NE.SW"	"OZ"	"4"
"314"	"1"	"1"	"4"	"SW"	16	14	"cong_r"	"n"	"n"	"1"	0.383058	"SW"	1	1	1	0	0.390825	-0.00776699999999997	"Flanker"	"Cong"	"NE.SW"	"OZ"	"4"
"315"	"1"	"1"	"4"	"SW"	16	15	"incon_l"	"c"	"c"	"1"	0.360826	"SW"	1	1	1	0	0.4339483	-0.0731223	"Flanker"	"Incong"	"NE.SW"	"OZ"	"4"
"316"	"1"	"1"	"4"	"NW"	16	16	"cong_r"	"n"	"n"	"1"	0.376033	"NW"	1	0	1	1	0.390825	-0.014792	"Flanker"	"Cong"	"NW.SE"	"OZ"	"4"
"317"	"1"	"1"	"4"	"NW"	16	17	"cong_l"	"c"	"c"	"1"	0.354068	"NW"	1	0	1	1	0.4105801	-0.0565121000000001	"Flanker"	"Cong"	"NW.SE"	"OZ"	"4"
"318"	"1"	"1"	"4"	"NW"	16	18	"incon_r"	"n"	"n"	"1"	0.395654	"NW"	1	0	1	1	0.4346445	-0.0389905	"Flanker"	"Incong"	"NW.SE"	"OZ"	"4"
"319"	"1"	"1"	"4"	"NW"	16	19	"incon_r"	"n"	"n"	"1"	0.373347	"NW"	1	0	1	1	0.4346445	-0.0612975	"Flanker"	"Incong"	"NW.SE"	"OZ"	"4"
"320"	"1"	"1"	"4"	"NW"	16	20	"incon_l"	"c"	"n"	"0"	0.399166	"NW"	1	0	1	1	0.4339483	-0.0347822999999999	"Flanker"	"Incong"	"NW.SE"	"OZ"	"4"
"321"	"1"	"1"	"30"	"NW"	17	1	"cong_l"	"c"	"c"	"1"	0.46549	"NW"	1	0	3	1	0.4105801	0.0549099	"Flanker"	"Cong"	"NW.SE"	"P7.8"	"30"
"322"	"1"	"1"	"30"	"NW"	17	2	"incon_l"	"c"	"c"	"1"	0.507575	"NW"	1	0	3	1	0.4339483	0.0736267	"Flanker"	"Incong"	"NW.SE"	"P7.8"	"30"
"323"	"1"	"1"	"30"	"NW"	17	3	"cong_r"	"n"	"n"	"1"	0.421309	"NW"	1	0	3	1	0.390825	0.030484	"Flanker"	"Cong"	"NW.SE"	"P7.8"	"30"
"324"	"1"	"1"	"30"	"NW"	17	4	"incon_r"	"n"	"n"	"1"	0.574855	"NW"	1	0	3	1	0.4346445	0.1402105	"Flanker"	"Incong"	"NW.SE"	"P7.8"	"30"
"325"	"1"	"1"	"30"	"NW"	17	5	"cong_l"	"c"	"c"	"1"	0.520835	"NW"	1	0	3	1	0.4105801	0.1102549	"Flanker"	"Cong"	"NW.SE"	"P7.8"	"30"
"326"	"1"	"1"	"30"	"W"	17	6	"incon_l"	"c"	"c"	"1"	0.452222	"E"	1	1	2	0	0.4339483	0.0182737000000001	"Flanker"	"Incong"	"E.W"	"P7.8"	"30"
"327"	"1"	"1"	"30"	"W"	17	7	"cong_l"	"c"	"c"	"1"	0.39712	"E"	1	1	2	0	0.4105801	-0.0134601000000001	"Flanker"	"Cong"	"E.W"	"P7.8"	"30"
"328"	"1"	"1"	"30"	"W"	17	8	"incon_r"	"n"	"n"	"1"	0.410546	"E"	1	1	2	0	0.4346445	-0.0240985	"Flanker"	"Incong"	"E.W"	"P7.8"	"30"
"329"	"1"	"1"	"30"	"W"	17	9	"cong_r"	"n"	"n"	"1"	0.436999	"E"	1	1	2	0	0.390825	0.046174	"Flanker"	"Cong"	"E.W"	"P7.8"	"30"
"330"	"1"	"1"	"30"	"W"	17	10	"incon_l"	"c"	"c"	"1"	0.398256	"E"	1	1	2	0	0.4339483	-0.0356923	"Flanker"	"Incong"	"E.W"	"P7.8"	"30"
"331"	"1"	"1"	"30"	"SW"	17	11	"cong_r"	"n"	"n"	"1"	0.462534	"NE"	2	2	4	0	0.390825	0.071709	"Flanker"	"Cong"	"NE.SW"	"P7.8"	"30"
"332"	"1"	"1"	"30"	"SW"	17	12	"cong_r"	"n"	"n"	"1"	0.504547	"NE"	2	2	4	0	0.390825	0.113722	"Flanker"	"Cong"	"NE.SW"	"P7.8"	"30"
"333"	"1"	"1"	"30"	"SW"	17	13	"incon_r"	"n"	"n"	"1"	0.641492	"NE"	2	2	4	0	0.4346445	0.2068475	"Flanker"	"Incong"	"NE.SW"	"P7.8"	"30"
"334"	"1"	"1"	"30"	"SW"	17	14	"incon_l"	"c"	"c"	"1"	0.635443	"NE"	2	2	4	0	0.4339483	0.2014947	"Flanker"	"Incong"	"NE.SW"	"P7.8"	"30"
"335"	"1"	"1"	"30"	"SW"	17	15	"cong_l"	"c"	"c"	"1"	0.456841	"NE"	2	2	4	0	0.4105801	0.0462608999999999	"Flanker"	"Cong"	"NE.SW"	"P7.8"	"30"
"336"	"1"	"1"	"30"	"S"	17	16	"incon_r"	"n"	""	NA	2.000124	"S"	NA	NA	NA	NA	0.4346445	1.5654795	"Flanker"	"Incong"	"N.S"	"P7.8"	"30"
"337"	"1"	"1"	"30"	"S"	17	17	"cong_r"	"n"	""	NA	1.999884	"S"	NA	NA	NA	NA	0.390825	1.609059	"Flanker"	"Cong"	"N.S"	"P7.8"	"30"
"338"	"1"	"1"	"30"	"S"	17	18	"incon_r"	"n"	""	NA	1.999814	"S"	NA	NA	NA	NA	0.4346445	1.5651695	"Flanker"	"Incong"	"N.S"	"P7.8"	"30"
"339"	"1"	"1"	"30"	"S"	17	19	"cong_l"	"c"	""	NA	2.000232	"S"	NA	NA	NA	NA	0.4105801	1.5896519	"Flanker"	"Cong"	"N.S"	"P7.8"	"30"
"340"	"1"	"1"	"30"	"S"	17	20	"incon_l"	"c"	""	NA	2.000106	"S"	NA	NA	NA	NA	0.4339483	1.5661577	"Flanker"	"Incong"	"N.S"	"P7.8"	"30"
"341"	"1"	"1"	"3"	"S"	18	1	"incon_r"	"n"	"n"	"1"	0.645988	"S"	0	0	0	0	0.4346445	0.2113435	"Flanker"	"Incong"	"N.S"	"PZ"	"3"
"342"	"1"	"1"	"3"	"S"	18	2	"cong_r"	"n"	"n"	"1"	0.382938	"S"	0	0	0	0	0.390825	-0.00788699999999998	"Flanker"	"Cong"	"N.S"	"PZ"	"3"
"343"	"1"	"1"	"3"	"S"	18	3	"incon_l"	"c"	"c"	"1"	0.392831	"S"	0	0	0	0	0.4339483	-0.0411173	"Flanker"	"Incong"	"N.S"	"PZ"	"3"
"344"	"1"	"1"	"3"	"S"	18	4	"cong_l"	"c"	"c"	"1"	0.470492	"S"	0	0	0	0	0.4105801	0.0599119	"Flanker"	"Cong"	"N.S"	"PZ"	"3"
"345"	"1"	"1"	"3"	"S"	18	5	"incon_l"	"c"	"c"	"1"	0.433592	"S"	0	0	0	0	0.4339483	-0.000356299999999976	"Flanker"	"Incong"	"N.S"	"PZ"	"3"
"346"	"1"	"1"	"3"	"SW"	18	6	"cong_l"	"c"	"c"	"1"	0.387604	"SW"	0	0	0	0	0.4105801	-0.0229761000000001	"Flanker"	"Cong"	"NE.SW"	"PZ"	"3"
"347"	"1"	"1"	"3"	"SW"	18	7	"incon_r"	"n"	"n"	"1"	0.34959	"SW"	0	0	0	0	0.4346445	-0.0850545	"Flanker"	"Incong"	"NE.SW"	"PZ"	"3"
"348"	"1"	"1"	"3"	"SW"	18	8	"cong_l"	"c"	"c"	"1"	0.327383	"SW"	0	0	0	0	0.4105801	-0.0831971000000001	"Flanker"	"Cong"	"NE.SW"	"PZ"	"3"
"349"	"1"	"1"	"3"	"SW"	18	9	"cong_r"	"n"	"n"	"1"	0.321254	"SW"	0	0	0	0	0.390825	-0.069571	"Flanker"	"Cong"	"NE.SW"	"PZ"	"3"
"350"	"1"	"1"	"3"	"SW"	18	10	"incon_l"	"c"	"c"	"1"	0.379013	"SW"	0	0	0	0	0.4339483	-0.0549353	"Flanker"	"Incong"	"NE.SW"	"PZ"	"3"
"351"	"1"	"1"	"3"	"W"	18	11	"cong_r"	"n"	"n"	"1"	0.341501	"W"	0	0	0	0	0.390825	-0.049324	"Flanker"	"Cong"	"E.W"	"PZ"	"3"
"352"	"1"	"1"	"3"	"W"	18	12	"cong_r"	"n"	"n"	"1"	0.399226	"W"	0	0	0	0	0.390825	0.00840100000000005	"Flanker"	"Cong"	"E.W"	"PZ"	"3"
"353"	"1"	"1"	"3"	"W"	18	13	"cong_l"	"c"	"c"	"1"	0.457302	"W"	0	0	0	0	0.4105801	0.0467218999999999	"Flanker"	"Cong"	"E.W"	"PZ"	"3"
"354"	"1"	"1"	"3"	"W"	18	14	"incon_r"	"n"	"n"	"1"	0.389268	"W"	0	0	0	0	0.4346445	-0.0453765	"Flanker"	"Incong"	"E.W"	"PZ"	"3"
"355"	"1"	"1"	"3"	"W"	18	15	"incon_l"	"c"	"c"	"1"	0.444793	"W"	0	0	0	0	0.4339483	0.0108447	"Flanker"	"Incong"	"E.W"	"PZ"	"3"
"356"	"1"	"1"	"3"	"NW"	18	16	"incon_r"	"n"	"n"	"1"	0.340123	"NW"	0	0	0	0	0.4346445	-0.0945215	"Flanker"	"Incong"	"NW.SE"	"PZ"	"3"
"357"	"1"	"1"	"3"	"NW"	18	17	"incon_r"	"n"	"n"	"1"	0.365372	"NW"	0	0	0	0	0.4346445	-0.0692725	"Flanker"	"Incong"	"NW.SE"	"PZ"	"3"
"358"	"1"	"1"	"3"	"NW"	18	18	"cong_r"	"n"	"n"	"1"	0.407478	"NW"	0	0	0	0	0.390825	0.016653	"Flanker"	"Cong"	"NW.SE"	"PZ"	"3"
"359"	"1"	"1"	"3"	"NW"	18	19	"cong_l"	"c"	"c"	"1"	0.385351	"NW"	0	0	0	0	0.4105801	-0.0252291000000001	"Flanker"	"Cong"	"NW.SE"	"PZ"	"3"
"360"	"1"	"1"	"3"	"NW"	18	20	"incon_l"	"c"	"c"	"1"	0.443268	"NW"	0	0	0	0	0.4339483	0.00931970000000004	"Flanker"	"Incong"	"NW.SE"	"PZ"	"3"
"361"	"1"	"1"	"28"	"S"	19	1	"incon_l"	"c"	"c"	"1"	0.403569	"S"	1	0	2	1	0.4339483	-0.0303792999999999	"Flanker"	"Incong"	"N.S"	"CP5.6"	"28"
"362"	"1"	"1"	"28"	"S"	19	2	"incon_l"	"c"	"c"	"1"	0.413726	"S"	1	0	2	1	0.4339483	-0.0202223	"Flanker"	"Incong"	"N.S"	"CP5.6"	"28"
"363"	"1"	"1"	"28"	"S"	19	3	"cong_r"	"n"	"n"	"1"	0.471089	"S"	1	0	2	1	0.390825	0.080264	"Flanker"	"Cong"	"N.S"	"CP5.6"	"28"
"364"	"1"	"1"	"28"	"S"	19	4	"incon_r"	"n"	"n"	"1"	0.544971	"S"	1	0	2	1	0.4346445	0.1103265	"Flanker"	"Incong"	"N.S"	"CP5.6"	"28"
"365"	"1"	"1"	"28"	"S"	19	5	"cong_l"	"c"	"c"	"1"	0.394698	"S"	1	0	2	1	0.4105801	-0.0158821000000001	"Flanker"	"Cong"	"N.S"	"CP5.6"	"28"
"366"	"1"	"1"	"28"	"SW"	19	6	"incon_l"	"c"	"c"	"1"	0.397963	"SW"	1	0	1	0	0.4339483	-0.0359852999999999	"Flanker"	"Incong"	"NE.SW"	"CP5.6"	"28"
"367"	"1"	"1"	"28"	"SW"	19	7	"cong_r"	"n"	"n"	"1"	0.423927	"SW"	1	0	1	0	0.390825	0.033102	"Flanker"	"Cong"	"NE.SW"	"CP5.6"	"28"
"368"	"1"	"1"	"28"	"SW"	19	8	"cong_l"	"c"	"c"	"1"	0.369764	"SW"	1	0	1	0	0.4105801	-0.0408161000000001	"Flanker"	"Cong"	"NE.SW"	"CP5.6"	"28"
"369"	"1"	"1"	"28"	"SW"	19	9	"cong_l"	"c"	"c"	"1"	0.411655	"SW"	1	0	1	0	0.4105801	0.00107489999999993	"Flanker"	"Cong"	"NE.SW"	"CP5.6"	"28"
"370"	"1"	"1"	"28"	"SW"	19	10	"incon_r"	"n"	"n"	"1"	0.35699	"SW"	1	0	1	0	0.4346445	-0.0776545	"Flanker"	"Incong"	"NE.SW"	"CP5.6"	"28"
"371"	"1"	"1"	"28"	"NW"	19	11	"incon_r"	"n"	"n"	"1"	0.319267	"NW"	0	0	1	1	0.4346445	-0.1153775	"Flanker"	"Incong"	"NW.SE"	"CP5.6"	"28"
"372"	"1"	"1"	"28"	"NW"	19	12	"cong_r"	"n"	"n"	"1"	0.425725	"NW"	0	0	1	1	0.390825	0.0349	"Flanker"	"Cong"	"NW.SE"	"CP5.6"	"28"
"373"	"1"	"1"	"28"	"NW"	19	13	"cong_r"	"n"	"n"	"1"	0.370848	"NW"	0	0	1	1	0.390825	-0.019977	"Flanker"	"Cong"	"NW.SE"	"CP5.6"	"28"
"374"	"1"	"1"	"28"	"NW"	19	14	"cong_l"	"c"	"c"	"1"	0.381325	"NW"	0	0	1	1	0.4105801	-0.0292551	"Flanker"	"Cong"	"NW.SE"	"CP5.6"	"28"
"375"	"1"	"1"	"28"	"NW"	19	15	"incon_l"	"c"	"c"	"1"	0.422232	"NW"	0	0	1	1	0.4339483	-0.0117163	"Flanker"	"Incong"	"NW.SE"	"CP5.6"	"28"
"376"	"1"	"1"	"28"	"W"	19	16	"incon_r"	"n"	"n"	"1"	0.336148	"E"	0	0	1	0	0.4346445	-0.0984965	"Flanker"	"Incong"	"E.W"	"CP5.6"	"28"
"377"	"1"	"1"	"28"	"W"	19	17	"incon_r"	"n"	"n"	"1"	0.409814	"E"	0	0	1	0	0.4346445	-0.0248305	"Flanker"	"Incong"	"E.W"	"CP5.6"	"28"
"378"	"1"	"1"	"28"	"W"	19	18	"incon_l"	"c"	"c"	"1"	0.486167	"E"	0	0	1	0	0.4339483	0.0522187000000001	"Flanker"	"Incong"	"E.W"	"CP5.6"	"28"
"379"	"1"	"1"	"28"	"W"	19	19	"cong_r"	"n"	"n"	"1"	0.398161	"E"	0	0	1	0	0.390825	0.00733600000000001	"Flanker"	"Cong"	"E.W"	"CP5.6"	"28"
"380"	"1"	"1"	"28"	"W"	19	20	"cong_l"	"c"	"c"	"1"	0.472224	"E"	0	0	1	0	0.4105801	0.0616438999999999	"Flanker"	"Cong"	"E.W"	"CP5.6"	"28"
"381"	"1"	"1"	"2"	"S"	20	1	"incon_r"	"n"	"n"	"1"	0.421611	"S"	0	0	0	0	0.4346445	-0.0130335	"Flanker"	"Incong"	"N.S"	"CZ"	"1"
"382"	"1"	"1"	"2"	"S"	20	2	"cong_r"	"n"	"n"	"1"	0.431645	"S"	0	0	0	0	0.390825	0.04082	"Flanker"	"Cong"	"N.S"	"CZ"	"1"
"383"	"1"	"1"	"2"	"S"	20	3	"incon_l"	"c"	"c"	"1"	0.520873	"S"	0	0	0	0	0.4339483	0.0869247000000001	"Flanker"	"Incong"	"N.S"	"CZ"	"1"
"384"	"1"	"1"	"2"	"S"	20	4	"cong_l"	"c"	"c"	"1"	0.402987	"S"	0	0	0	0	0.4105801	-0.00759310000000007	"Flanker"	"Cong"	"N.S"	"CZ"	"1"
"385"	"1"	"1"	"2"	"S"	20	5	"incon_l"	"c"	"c"	"1"	0.476543	"S"	0	0	0	0	0.4339483	0.0425947	"Flanker"	"Incong"	"N.S"	"CZ"	"1"
"386"	"1"	"1"	"2"	"SW"	20	6	"incon_l"	"c"	"c"	"1"	0.551414	"SW"	0	0	0	0	0.4339483	0.1174657	"Flanker"	"Incong"	"NE.SW"	"CZ"	"1"
"387"	"1"	"1"	"2"	"SW"	20	7	"cong_r"	"n"	"n"	"1"	0.578245	"SW"	0	0	0	0	0.390825	0.18742	"Flanker"	"Cong"	"NE.SW"	"CZ"	"1"
"388"	"1"	"1"	"2"	"SW"	20	8	"cong_r"	"n"	"n"	"1"	0.412297	"SW"	0	0	0	0	0.390825	0.021472	"Flanker"	"Cong"	"NE.SW"	"CZ"	"1"
"389"	"1"	"1"	"2"	"SW"	20	9	"cong_l"	"c"	"c"	"1"	0.340709	"SW"	0	0	0	0	0.4105801	-0.0698711000000001	"Flanker"	"Cong"	"NE.SW"	"CZ"	"1"
"390"	"1"	"1"	"2"	"SW"	20	10	"incon_r"	"n"	"n"	"1"	0.382948	"SW"	0	0	0	0	0.4346445	-0.0516965	"Flanker"	"Incong"	"NE.SW"	"CZ"	"1"
"391"	"1"	"1"	"2"	"NW"	20	11	"incon_r"	"n"	"n"	"1"	0.360251	"SE"	0	0	0	0	0.4346445	-0.0743935	"Flanker"	"Incong"	"NW.SE"	"CZ"	"1"
"392"	"1"	"1"	"2"	"NW"	20	12	"incon_r"	"n"	"n"	"1"	0.370413	"SE"	0	0	0	0	0.4346445	-0.0642315	"Flanker"	"Incong"	"NW.SE"	"CZ"	"1"
"393"	"1"	"1"	"2"	"NW"	20	13	"incon_l"	"c"	"c"	"1"	0.492	"SE"	0	0	0	0	0.4339483	0.0580517	"Flanker"	"Incong"	"NW.SE"	"CZ"	"1"
"394"	"1"	"1"	"2"	"NW"	20	14	"cong_r"	"n"	"n"	"1"	0.453962	"SE"	0	0	0	0	0.390825	0.063137	"Flanker"	"Cong"	"NW.SE"	"CZ"	"1"
"395"	"1"	"1"	"2"	"NW"	20	15	"cong_l"	"c"	"c"	"1"	0.383552	"SE"	0	0	0	0	0.4105801	-0.0270281000000001	"Flanker"	"Cong"	"NW.SE"	"CZ"	"1"
"396"	"1"	"1"	"2"	"W"	20	16	"incon_r"	"n"	"n"	"1"	0.382267	"W"	0	0	0	0	0.4346445	-0.0523775	"Flanker"	"Incong"	"E.W"	"CZ"	"1"
"397"	"1"	"1"	"2"	"W"	20	17	"cong_l"	"c"	"c"	"1"	0.360881	"W"	0	0	0	0	0.4105801	-0.0496991000000001	"Flanker"	"Cong"	"E.W"	"CZ"	"1"
"398"	"1"	"1"	"2"	"W"	20	18	"cong_l"	"c"	"c"	"1"	0.44963	"W"	0	0	0	0	0.4105801	0.0390498999999999	"Flanker"	"Cong"	"E.W"	"CZ"	"1"
"399"	"1"	"1"	"2"	"W"	20	19	"cong_r"	"n"	"n"	"1"	0.491801	"W"	0	0	0	0	0.390825	0.100976	"Flanker"	"Cong"	"E.W"	"CZ"	"1"
"400"	"1"	"1"	"2"	"W"	20	20	"incon_l"	"c"	"c"	"1"	0.373236	"W"	0	0	0	0	0.4339483	-0.0607122999999999	"Flanker"	"Incong"	"E.W"	"CZ"	"1"
"401"	"1"	"1"	"27"	"SW"	21	1	"incon_l"	"c"	"c"	"1"	0.454154	"SW"	0	0	0	0	0.4339483	0.0202057	"Flanker"	"Incong"	"NE.SW"	"CP1.2"	"27"
"402"	"1"	"1"	"27"	"SW"	21	2	"cong_r"	"n"	"n"	"1"	0.370034	"SW"	0	0	0	0	0.390825	-0.020791	"Flanker"	"Cong"	"NE.SW"	"CP1.2"	"27"
"403"	"1"	"1"	"27"	"SW"	21	3	"cong_l"	"c"	"c"	"1"	0.393451	"SW"	0	0	0	0	0.4105801	-0.0171291000000001	"Flanker"	"Cong"	"NE.SW"	"CP1.2"	"27"
"404"	"1"	"1"	"27"	"SW"	21	4	"incon_r"	"n"	"n"	"1"	0.371351	"SW"	0	0	0	0	0.4346445	-0.0632935	"Flanker"	"Incong"	"NE.SW"	"CP1.2"	"27"
"405"	"1"	"1"	"27"	"SW"	21	5	"cong_r"	"n"	"n"	"1"	0.413313	"SW"	0	0	0	0	0.390825	0.022488	"Flanker"	"Cong"	"NE.SW"	"CP1.2"	"27"
"406"	"1"	"1"	"27"	"NW"	21	6	"incon_r"	"n"	"n"	"1"	0.365084	"SE"	0	0	0	0	0.4346445	-0.0695605	"Flanker"	"Incong"	"NW.SE"	"CP1.2"	"27"
"407"	"1"	"1"	"27"	"NW"	21	7	"incon_l"	"c"	"c"	"1"	0.406598	"SE"	0	0	0	0	0.4339483	-0.0273502999999999	"Flanker"	"Incong"	"NW.SE"	"CP1.2"	"27"
"408"	"1"	"1"	"27"	"NW"	21	8	"cong_l"	"c"	"c"	"1"	0.400552	"SE"	0	0	0	0	0.4105801	-0.0100281	"Flanker"	"Cong"	"NW.SE"	"CP1.2"	"27"
"409"	"1"	"1"	"27"	"NW"	21	9	"cong_r"	"n"	"n"	"1"	0.378231	"SE"	0	0	0	0	0.390825	-0.012594	"Flanker"	"Cong"	"NW.SE"	"CP1.2"	"27"
"410"	"1"	"1"	"27"	"NW"	21	10	"incon_l"	"c"	"c"	"1"	0.372033	"SE"	0	0	0	0	0.4339483	-0.0619153	"Flanker"	"Incong"	"NW.SE"	"CP1.2"	"27"
"411"	"1"	"1"	"27"	"S"	21	11	"incon_l"	"c"	"c"	"1"	0.358632	"S"	0	0	0	0	0.4339483	-0.0753162999999999	"Flanker"	"Incong"	"N.S"	"CP1.2"	"27"
"412"	"1"	"1"	"27"	"S"	21	12	"cong_l"	"c"	"c"	"1"	0.384131	"S"	0	0	0	0	0.4105801	-0.0264491000000001	"Flanker"	"Cong"	"N.S"	"CP1.2"	"27"
"413"	"1"	"1"	"27"	"S"	21	13	"incon_r"	"n"	"n"	"1"	0.44175	"S"	0	0	0	0	0.4346445	0.00710549999999999	"Flanker"	"Incong"	"N.S"	"CP1.2"	"27"
"414"	"1"	"1"	"27"	"S"	21	14	"incon_r"	"n"	"n"	"1"	0.451836	"S"	0	0	0	0	0.4346445	0.0171915	"Flanker"	"Incong"	"N.S"	"CP1.2"	"27"
"415"	"1"	"1"	"27"	"S"	21	15	"cong_r"	"n"	"n"	"1"	0.397219	"S"	0	0	0	0	0.390825	0.00639400000000001	"Flanker"	"Cong"	"N.S"	"CP1.2"	"27"
"416"	"1"	"1"	"27"	"W"	21	16	"cong_l"	"c"	"c"	"1"	0.421492	"W"	0	0	0	0	0.4105801	0.0109118999999999	"Flanker"	"Cong"	"E.W"	"CP1.2"	"27"
"417"	"1"	"1"	"27"	"W"	21	17	"incon_r"	"n"	"n"	"1"	0.38245	"W"	0	0	0	0	0.4346445	-0.0521945	"Flanker"	"Incong"	"E.W"	"CP1.2"	"27"
"418"	"1"	"1"	"27"	"W"	21	18	"cong_l"	"c"	"c"	"1"	0.362026	"W"	0	0	0	0	0.4105801	-0.0485541	"Flanker"	"Cong"	"E.W"	"CP1.2"	"27"
"419"	"1"	"1"	"27"	"W"	21	19	"incon_l"	"c"	"c"	"1"	0.482567	"W"	0	0	0	0	0.4339483	0.0486187000000001	"Flanker"	"Incong"	"E.W"	"CP1.2"	"27"
"420"	"1"	"1"	"27"	"W"	21	20	"cong_r"	"n"	"n"	"1"	0.444819	"W"	0	0	0	0	0.390825	0.053994	"Flanker"	"Cong"	"E.W"	"CP1.2"	"27"
"421"	"1"	"1"	"22"	"S"	22	1	"incon_l"	"c"	"c"	"1"	0.470618	"S"	2	2	4	5	0.4339483	0.0366697	"Flanker"	"Incong"	"N.S"	"F7.8"	"22"
"422"	"1"	"1"	"22"	"S"	22	2	"cong_r"	"n"	"n"	"1"	0.559834	"S"	2	2	4	5	0.390825	0.169009	"Flanker"	"Cong"	"N.S"	"F7.8"	"22"
"423"	"1"	"1"	"22"	"S"	22	3	"incon_l"	"c"	"c"	"1"	0.53795	"S"	2	2	4	5	0.4339483	0.1040017	"Flanker"	"Incong"	"N.S"	"F7.8"	"22"
"424"	"1"	"1"	"22"	"S"	22	4	"cong_l"	"c"	"c"	"1"	0.579436	"S"	2	2	4	5	0.4105801	0.1688559	"Flanker"	"Cong"	"N.S"	"F7.8"	"22"
"425"	"1"	"1"	"22"	"S"	22	5	"incon_r"	"n"	"n"	"1"	0.575582	"S"	2	2	4	5	0.4346445	0.1409375	"Flanker"	"Incong"	"N.S"	"F7.8"	"22"
"426"	"1"	"1"	"22"	"W"	22	6	"incon_r"	"n"	"n"	"1"	0.431828	"E"	3	2	4	2	0.4346445	-0.0028165	"Flanker"	"Incong"	"E.W"	"F7.8"	"22"
"427"	"1"	"1"	"22"	"W"	22	7	"cong_r"	"n"	"n"	"1"	0.391661	"E"	3	2	4	2	0.390825	0.000836000000000003	"Flanker"	"Cong"	"E.W"	"F7.8"	"22"
"428"	"1"	"1"	"22"	"W"	22	8	"cong_l"	"c"	"c"	"1"	0.43318	"E"	3	2	4	2	0.4105801	0.0225999	"Flanker"	"Cong"	"E.W"	"F7.8"	"22"
"429"	"1"	"1"	"22"	"W"	22	9	"incon_r"	"n"	"n"	"1"	0.411374	"E"	3	2	4	2	0.4346445	-0.0232705	"Flanker"	"Incong"	"E.W"	"F7.8"	"22"
"430"	"1"	"1"	"22"	"W"	22	10	"incon_l"	"c"	"c"	"1"	0.390063	"E"	3	2	4	2	0.4339483	-0.0438853	"Flanker"	"Incong"	"E.W"	"F7.8"	"22"
"431"	"1"	"1"	"22"	"SW"	22	11	"incon_l"	"c"	"c"	"1"	0.477715	"SW"	4	3	4	2	0.4339483	0.0437667	"Flanker"	"Incong"	"NE.SW"	"F7.8"	"22"
"432"	"1"	"1"	"22"	"SW"	22	12	"cong_r"	"n"	"n"	"1"	0.614919	"SW"	4	3	4	2	0.390825	0.224094	"Flanker"	"Cong"	"NE.SW"	"F7.8"	"22"
"433"	"1"	"1"	"22"	"SW"	22	13	"cong_l"	"c"	"c"	"1"	0.448803	"SW"	4	3	4	2	0.4105801	0.0382228999999999	"Flanker"	"Cong"	"NE.SW"	"F7.8"	"22"
"434"	"1"	"1"	"22"	"SW"	22	14	"cong_r"	"n"	"n"	"1"	0.458864	"SW"	4	3	4	2	0.390825	0.068039	"Flanker"	"Cong"	"NE.SW"	"F7.8"	"22"
"435"	"1"	"1"	"22"	"SW"	22	15	"incon_r"	"n"	"n"	"1"	0.62832	"SW"	4	3	4	2	0.4346445	0.1936755	"Flanker"	"Incong"	"NE.SW"	"F7.8"	"22"
"436"	"1"	"1"	"22"	"NW"	22	16	"incon_r"	"n"	"n"	"1"	0.407441	"NW"	2	2	3	1	0.4346445	-0.0272035	"Flanker"	"Incong"	"NW.SE"	"F7.8"	"22"
"437"	"1"	"1"	"22"	"NW"	22	17	"cong_r"	"n"	"n"	"1"	0.449124	"NW"	2	2	3	1	0.390825	0.058299	"Flanker"	"Cong"	"NW.SE"	"F7.8"	"22"
"438"	"1"	"1"	"22"	"NW"	22	18	"cong_l"	"c"	"c"	"1"	0.443916	"NW"	2	2	3	1	0.4105801	0.0333358999999999	"Flanker"	"Cong"	"NW.SE"	"F7.8"	"22"
"439"	"1"	"1"	"22"	"NW"	22	19	"cong_l"	"c"	"c"	"1"	0.324702	"NW"	2	2	3	1	0.4105801	-0.0858781000000001	"Flanker"	"Cong"	"NW.SE"	"F7.8"	"22"
"440"	"1"	"1"	"22"	"NW"	22	20	"incon_l"	"c"	"c"	"1"	0.366111	"NW"	2	2	3	1	0.4339483	-0.0678372999999999	"Flanker"	"Incong"	"NW.SE"	"F7.8"	"22"
"441"	"1"	"1"	"110"	"W"	23	1	"incon_l"	"c"	"c"	"1"	0.525257	"E"	6	5	6	4	0.4339483	0.0913087	"Flanker"	"Incong"	"E.W"	"ATL"	"110"
"442"	"1"	"1"	"110"	"W"	23	2	"cong_l"	"c"	"c"	"1"	0.647261	"E"	6	5	6	4	0.4105801	0.2366809	"Flanker"	"Cong"	"E.W"	"ATL"	"110"
"443"	"1"	"1"	"110"	"W"	23	3	"incon_r"	"n"	"n"	"1"	0.529452	"E"	6	5	6	4	0.4346445	0.0948075	"Flanker"	"Incong"	"E.W"	"ATL"	"110"
"444"	"1"	"1"	"110"	"W"	23	4	"incon_l"	"c"	"c"	"1"	0.587178	"E"	6	5	6	4	0.4339483	0.1532297	"Flanker"	"Incong"	"E.W"	"ATL"	"110"
"445"	"1"	"1"	"110"	"W"	23	5	"cong_r"	"n"	"n"	"1"	0.580865	"E"	6	5	6	4	0.390825	0.19004	"Flanker"	"Cong"	"E.W"	"ATL"	"110"
"446"	"1"	"1"	"110"	"SW"	23	6	"incon_l"	"c"	"c"	"1"	0.532559	"SW"	4	3	5	4	0.4339483	0.0986107000000001	"Flanker"	"Incong"	"NE.SW"	"ATL"	"110"
"447"	"1"	"1"	"110"	"SW"	23	7	"cong_l"	"c"	"c"	"1"	0.513662	"SW"	4	3	5	4	0.4105801	0.1030819	"Flanker"	"Cong"	"NE.SW"	"ATL"	"110"
"448"	"1"	"1"	"110"	"SW"	23	8	"cong_r"	"n"	"n"	"1"	0.491398	"SW"	4	3	5	4	0.390825	0.100573	"Flanker"	"Cong"	"NE.SW"	"ATL"	"110"
"449"	"1"	"1"	"110"	"SW"	23	9	"incon_r"	"n"	"n"	"1"	0.537196	"SW"	4	3	5	4	0.4346445	0.1025515	"Flanker"	"Incong"	"NE.SW"	"ATL"	"110"
"450"	"1"	"1"	"110"	"SW"	23	10	"cong_r"	"n"	"n"	"1"	0.623393	"SW"	4	3	5	4	0.390825	0.232568	"Flanker"	"Cong"	"NE.SW"	"ATL"	"110"
"451"	"1"	"1"	"110"	"NW"	23	11	"incon_r"	"n"	"n"	"1"	0.437594	"SE"	5	4	5	2	0.4346445	0.00294949999999999	"Flanker"	"Incong"	"NW.SE"	"ATL"	"110"
"452"	"1"	"1"	"110"	"NW"	23	12	"cong_l"	"c"	"c"	"1"	0.463231	"SE"	5	4	5	2	0.4105801	0.0526508999999999	"Flanker"	"Cong"	"NW.SE"	"ATL"	"110"
"453"	"1"	"1"	"110"	"NW"	23	13	"incon_l"	"c"	"c"	"1"	0.441121	"SE"	5	4	5	2	0.4339483	0.00717270000000003	"Flanker"	"Incong"	"NW.SE"	"ATL"	"110"
"454"	"1"	"1"	"110"	"NW"	23	14	"cong_l"	"c"	"c"	"1"	0.515218	"SE"	5	4	5	2	0.4105801	0.1046379	"Flanker"	"Cong"	"NW.SE"	"ATL"	"110"
"455"	"1"	"1"	"110"	"NW"	23	15	"cong_r"	"n"	"n"	"1"	0.588574	"SE"	5	4	5	2	0.390825	0.197749	"Flanker"	"Cong"	"NW.SE"	"ATL"	"110"
"456"	"1"	"1"	"110"	"S"	23	16	"incon_l"	"c"	"c"	"1"	0.419901	"S"	3	2	4	3	0.4339483	-0.0140472999999999	"Flanker"	"Incong"	"N.S"	"ATL"	"110"
"457"	"1"	"1"	"110"	"S"	23	17	"incon_r"	"n"	"n"	"1"	0.4137	"S"	3	2	4	3	0.4346445	-0.0209445	"Flanker"	"Incong"	"N.S"	"ATL"	"110"
"458"	"1"	"1"	"110"	"S"	23	18	"cong_r"	"n"	"n"	"1"	0.439629	"S"	3	2	4	3	0.390825	0.048804	"Flanker"	"Cong"	"N.S"	"ATL"	"110"
"459"	"1"	"1"	"110"	"S"	23	19	"incon_r"	"n"	"n"	"1"	0.608782	"S"	3	2	4	3	0.4346445	0.1741375	"Flanker"	"Incong"	"N.S"	"ATL"	"110"
"460"	"1"	"1"	"110"	"S"	23	20	"cong_l"	"c"	"c"	"1"	0.586613	"S"	3	2	4	3	0.4105801	0.1760329	"Flanker"	"Cong"	"N.S"	"ATL"	"110"
"461"	"1"	"1"	"32"	"W"	24	1	"incon_l"	"c"	"c"	"1"	0.510617	"W"	1	1	1	2	0.4339483	0.0766687	"Flanker"	"Incong"	"E.W"	"O1.2"	"32"
"462"	"1"	"1"	"32"	"W"	24	2	"cong_l"	"c"	"c"	"1"	0.392306	"W"	1	1	1	2	0.4105801	-0.0182741000000001	"Flanker"	"Cong"	"E.W"	"O1.2"	"32"
"463"	"1"	"1"	"32"	"W"	24	3	"cong_r"	"n"	"n"	"1"	0.370486	"W"	1	1	1	2	0.390825	-0.020339	"Flanker"	"Cong"	"E.W"	"O1.2"	"32"
"464"	"1"	"1"	"32"	"W"	24	4	"incon_r"	"n"	"n"	"1"	0.396448	"W"	1	1	1	2	0.4346445	-0.0381965	"Flanker"	"Incong"	"E.W"	"O1.2"	"32"
"465"	"1"	"1"	"32"	"W"	24	5	"cong_l"	"c"	"c"	"1"	0.421948	"W"	1	1	1	2	0.4105801	0.0113678999999999	"Flanker"	"Cong"	"E.W"	"O1.2"	"32"
"466"	"1"	"1"	"32"	"NW"	24	6	"cong_r"	"n"	"n"	"1"	0.402186	"NW"	1	1	1	0	0.390825	0.011361	"Flanker"	"Cong"	"NW.SE"	"O1.2"	"32"
"467"	"1"	"1"	"32"	"NW"	24	7	"cong_r"	"n"	"n"	"1"	0.396337	"NW"	1	1	1	0	0.390825	0.00551200000000002	"Flanker"	"Cong"	"NW.SE"	"O1.2"	"32"
"468"	"1"	"1"	"32"	"NW"	24	8	"incon_r"	"n"	"n"	"1"	0.374229	"NW"	1	1	1	0	0.4346445	-0.0604155	"Flanker"	"Incong"	"NW.SE"	"O1.2"	"32"
"469"	"1"	"1"	"32"	"NW"	24	9	"cong_l"	"c"	"c"	"1"	0.496225	"NW"	1	1	1	0	0.4105801	0.0856449	"Flanker"	"Cong"	"NW.SE"	"O1.2"	"32"
"470"	"1"	"1"	"32"	"NW"	24	10	"incon_l"	"c"	"c"	"1"	0.84172	"NW"	1	1	1	0	0.4339483	0.4077717	"Flanker"	"Incong"	"NW.SE"	"O1.2"	"32"
"471"	"1"	"1"	"32"	"SW"	24	11	"incon_l"	"c"	"c"	"1"	0.512954	"NE"	1	1	1	0	0.4339483	0.0790057000000001	"Flanker"	"Incong"	"NE.SW"	"O1.2"	"32"
"472"	"1"	"1"	"32"	"SW"	24	12	"incon_r"	"n"	"n"	"1"	0.394524	"NE"	1	1	1	0	0.4346445	-0.0401205	"Flanker"	"Incong"	"NE.SW"	"O1.2"	"32"
"473"	"1"	"1"	"32"	"SW"	24	13	"cong_r"	"n"	"n"	"1"	0.340396	"NE"	1	1	1	0	0.390825	-0.050429	"Flanker"	"Cong"	"NE.SW"	"O1.2"	"32"
"474"	"1"	"1"	"32"	"SW"	24	14	"incon_l"	"c"	"c"	"1"	0.350087	"NE"	1	1	1	0	0.4339483	-0.0838613	"Flanker"	"Incong"	"NE.SW"	"O1.2"	"32"
"475"	"1"	"1"	"32"	"SW"	24	15	"cong_l"	"c"	"c"	"1"	0.408089	"NE"	1	1	1	0	0.4105801	-0.00249110000000008	"Flanker"	"Cong"	"NE.SW"	"O1.2"	"32"
"476"	"1"	"1"	"32"	"S"	24	16	"incon_l"	"c"	"c"	"1"	0.416716	"N"	1	0	1	2	0.4339483	-0.0172323	"Flanker"	"Incong"	"N.S"	"O1.2"	"32"
"477"	"1"	"1"	"32"	"S"	24	17	"incon_r"	"n"	"n"	"1"	0.393987	"N"	1	0	1	2	0.4346445	-0.0406575	"Flanker"	"Incong"	"N.S"	"O1.2"	"32"
"478"	"1"	"1"	"32"	"S"	24	18	"incon_r"	"n"	"n"	"1"	0.436276	"N"	1	0	1	2	0.4346445	0.00163150000000001	"Flanker"	"Incong"	"N.S"	"O1.2"	"32"
"479"	"1"	"1"	"32"	"S"	24	19	"cong_r"	"n"	"n"	"1"	0.413621	"N"	1	0	1	2	0.390825	0.022796	"Flanker"	"Cong"	"N.S"	"O1.2"	"32"
"480"	"1"	"1"	"32"	"S"	24	20	"cong_l"	"c"	"c"	"1"	0.377371	"N"	1	0	1	2	0.4105801	-0.0332091	"Flanker"	"Cong"	"N.S"	"O1.2"	"32"
"481"	"2"	"2"	"102"	"S"	1	1	"cong_l"	"c"	"c"	"1"	0.58162	"E"	4	1	8	4	0.3788551	0.2027649	"Flanker"	"Cong"	"N.S"	"LatOc"	"102"
"482"	"2"	"2"	"9"	"E"	1	1	"incon_r"	"n"	"c"	"0"	0.413328	"E"	0	0	2	0	0.4127704	0.000557599999999936	"Flanker"	"Incong"	"E.W"	"FC1.2"	"9"
"483"	"2"	"2"	"9"	"E"	1	2	"cong_r"	"n"	"n"	"1"	0.429377	"E"	0	0	2	0	0.4074729	0.0219041	"Flanker"	"Cong"	"E.W"	"FC1.2"	"9"
"484"	"2"	"2"	"102"	"S"	1	2	"cong_r"	"n"	"n"	"1"	0.511018	"E"	4	1	8	4	0.4074729	0.1035451	"Flanker"	"Cong"	"N.S"	"LatOc"	"102"
"485"	"2"	"2"	"9"	"E"	1	3	"cong_l"	"c"	"c"	"1"	0.464375	"E"	0	0	2	0	0.3788551	0.0855199000000001	"Flanker"	"Cong"	"E.W"	"FC1.2"	"9"
"486"	"2"	"2"	"102"	"S"	1	3	"incon_r"	"n"	"n"	"1"	0.535696	"E"	4	1	8	4	0.4127704	0.1229256	"Flanker"	"Incong"	"N.S"	"LatOc"	"102"
"487"	"2"	"2"	"9"	"E"	1	4	"incon_r"	"n"	"n"	"1"	0.421707	"E"	0	0	2	0	0.4127704	0.00893659999999996	"Flanker"	"Incong"	"E.W"	"FC1.2"	"9"
"488"	"2"	"2"	"102"	"S"	1	4	"incon_r"	"n"	"n"	"1"	0.430786	"E"	4	1	8	4	0.4127704	0.0180156	"Flanker"	"Incong"	"N.S"	"LatOc"	"102"
"489"	"2"	"2"	"9"	"E"	1	5	"incon_l"	"c"	"n"	"0"	0.370963	"E"	0	0	2	0	0.4342886	-0.0633256	"Flanker"	"Incong"	"E.W"	"FC1.2"	"9"
"490"	"2"	"2"	"102"	"S"	1	5	"incon_l"	"c"	"c"	"1"	0.568536	"E"	4	1	8	4	0.4342886	0.1342474	"Flanker"	"Incong"	"N.S"	"LatOc"	"102"
"491"	"2"	"2"	"9"	"S"	1	6	"cong_l"	"c"	"c"	"1"	0.54905	"S"	0	0	6	0	0.3788551	0.1701949	"Flanker"	"Cong"	"N.S"	"FC1.2"	"9"
"492"	"2"	"2"	"102"	"NE"	1	6	"cong_l"	"c"	"c"	"1"	0.398677	"NE"	4	3	8	5	0.3788551	0.0198219000000001	"Flanker"	"Cong"	"NE.SW"	"LatOc"	"102"
"493"	"2"	"2"	"102"	"NE"	1	7	"cong_r"	"n"	"n"	"1"	0.431465	"NE"	4	3	8	5	0.4074729	0.0239921	"Flanker"	"Cong"	"NE.SW"	"LatOc"	"102"
"494"	"2"	"2"	"9"	"S"	1	7	"incon_l"	"c"	"c"	"1"	0.538658	"S"	0	0	6	0	0.4342886	0.1043694	"Flanker"	"Incong"	"N.S"	"FC1.2"	"9"
"495"	"2"	"2"	"102"	"NE"	1	8	"incon_l"	"c"	"c"	"1"	0.587062	"NE"	4	3	8	5	0.4342886	0.1527734	"Flanker"	"Incong"	"NE.SW"	"LatOc"	"102"
"496"	"2"	"2"	"9"	"S"	1	8	"incon_r"	"n"	"n"	"1"	0.45376	"S"	0	0	6	0	0.4127704	0.0409896	"Flanker"	"Incong"	"N.S"	"FC1.2"	"9"
"497"	"2"	"2"	"9"	"S"	1	9	"incon_l"	"c"	"c"	"1"	0.432975	"S"	0	0	6	0	0.4342886	-0.00131360000000003	"Flanker"	"Incong"	"N.S"	"FC1.2"	"9"
"498"	"2"	"2"	"102"	"NE"	1	9	"incon_r"	"n"	"n"	"1"	0.403628	"NE"	4	3	8	5	0.4127704	-0.00914240000000005	"Flanker"	"Incong"	"NE.SW"	"LatOc"	"102"
"499"	"2"	"2"	"102"	"NE"	1	10	"cong_l"	"c"	"c"	"1"	0.385662	"NE"	4	3	8	5	0.3788551	0.00680690000000012	"Flanker"	"Cong"	"NE.SW"	"LatOc"	"102"
"500"	"2"	"2"	"9"	"S"	1	10	"cong_r"	"n"	"n"	"1"	0.424313	"S"	0	0	6	0	0.4074729	0.0168401	"Flanker"	"Cong"	"N.S"	"FC1.2"	"9"
"501"	"2"	"2"	"9"	"SE"	1	11	"cong_l"	"c"	"c"	"1"	0.399784	"SE"	0	0	4	2	0.3788551	0.0209289000000001	"Flanker"	"Cong"	"NW.SE"	"FC1.2"	"9"
"502"	"2"	"2"	"102"	"SE"	1	11	"incon_r"	"n"	"n"	"1"	0.54875	"SE"	3	0	7	5	0.4127704	0.1359796	"Flanker"	"Incong"	"NW.SE"	"LatOc"	"102"
"503"	"2"	"2"	"9"	"SE"	1	12	"incon_l"	"c"	"c"	"1"	0.720011	"SE"	0	0	4	2	0.4342886	0.2857224	"Flanker"	"Incong"	"NW.SE"	"FC1.2"	"9"
"504"	"2"	"2"	"102"	"SE"	1	12	"incon_l"	"c"	"c"	"1"	0.539905	"SE"	3	0	7	5	0.4342886	0.1056164	"Flanker"	"Incong"	"NW.SE"	"LatOc"	"102"
"505"	"2"	"2"	"102"	"SE"	1	13	"cong_l"	"c"	"c"	"1"	0.440245	"SE"	3	0	7	5	0.3788551	0.0613899000000001	"Flanker"	"Cong"	"NW.SE"	"LatOc"	"102"
"506"	"2"	"2"	"9"	"SE"	1	13	"cong_r"	"n"	"n"	"1"	0.514945	"SE"	0	0	4	2	0.4074729	0.1074721	"Flanker"	"Cong"	"NW.SE"	"FC1.2"	"9"
"507"	"2"	"2"	"102"	"SE"	1	14	"incon_l"	"c"	"c"	"1"	0.468641	"SE"	3	0	7	5	0.4342886	0.0343523999999999	"Flanker"	"Incong"	"NW.SE"	"LatOc"	"102"
"508"	"2"	"2"	"9"	"SE"	1	14	"incon_r"	"n"	"n"	"1"	0.51613	"SE"	0	0	4	2	0.4127704	0.1033596	"Flanker"	"Incong"	"NW.SE"	"FC1.2"	"9"
"509"	"2"	"2"	"9"	"SE"	1	15	"cong_l"	"c"	"c"	"1"	0.4236	"SE"	0	0	4	2	0.3788551	0.0447449000000001	"Flanker"	"Cong"	"NW.SE"	"FC1.2"	"9"
"510"	"2"	"2"	"102"	"SE"	1	15	"cong_r"	"n"	"n"	"1"	0.531705	"SE"	3	0	7	5	0.4074729	0.1242321	"Flanker"	"Cong"	"NW.SE"	"LatOc"	"102"
"511"	"2"	"2"	"102"	"E"	1	16	"incon_l"	"c"	"c"	"1"	0.532645	"S"	3	0	6	5	0.4342886	0.0983564	"Flanker"	"Incong"	"E.W"	"LatOc"	"102"
"512"	"2"	"2"	"9"	"NE"	1	16	"incon_r"	"n"	"n"	"1"	0.511117	"SW"	0	0	6	1	0.4127704	0.0983466	"Flanker"	"Incong"	"NE.SW"	"FC1.2"	"9"
"513"	"2"	"2"	"9"	"NE"	1	17	"cong_r"	"n"	"n"	"1"	0.475249	"SW"	0	0	6	1	0.4074729	0.0677761	"Flanker"	"Cong"	"NE.SW"	"FC1.2"	"9"
"514"	"2"	"2"	"102"	"E"	1	17	"incon_r"	"n"	"n"	"1"	0.440995	"S"	3	0	6	5	0.4127704	0.0282246	"Flanker"	"Incong"	"E.W"	"LatOc"	"102"
"515"	"2"	"2"	"9"	"NE"	1	18	"cong_r"	"n"	"n"	"1"	0.63115	"SW"	0	0	6	1	0.4074729	0.2236771	"Flanker"	"Cong"	"NE.SW"	"FC1.2"	"9"
"516"	"2"	"2"	"102"	"E"	1	18	"cong_r"	"n"	"n"	"1"	0.43915	"S"	3	0	6	5	0.4074729	0.0316771	"Flanker"	"Cong"	"E.W"	"LatOc"	"102"
"517"	"2"	"2"	"102"	"E"	1	19	"cong_l"	"c"	"c"	"1"	0.403628	"S"	3	0	6	5	0.3788551	0.0247729000000001	"Flanker"	"Cong"	"E.W"	"LatOc"	"102"
"518"	"2"	"2"	"9"	"NE"	1	19	"incon_l"	"c"	"c"	"1"	0.422069	"SW"	0	0	6	1	0.4342886	-0.0122196	"Flanker"	"Incong"	"NE.SW"	"FC1.2"	"9"
"519"	"2"	"2"	"9"	"NE"	1	20	"cong_l"	"c"	"c"	"1"	0.364455	"SW"	0	0	6	1	0.3788551	-0.0144000999999999	"Flanker"	"Cong"	"NE.SW"	"FC1.2"	"9"
"520"	"2"	"2"	"102"	"E"	1	20	"cong_r"	"n"	"n"	"1"	0.363893	"S"	3	0	6	5	0.4074729	-0.0435798999999999	"Flanker"	"Cong"	"E.W"	"LatOc"	"102"
"521"	"2"	"2"	"2"	"E"	2	1	"cong_r"	"n"	"n"	"1"	0.498721	"E"	0	0	2	0	0.4074729	0.0912481000000001	"Flanker"	"Cong"	"E.W"	"CZ"	"1"
"522"	"2"	"2"	"2"	"E"	2	2	"incon_l"	"c"	"c"	"1"	0.450559	"E"	0	0	2	0	0.4342886	0.0162704	"Flanker"	"Incong"	"E.W"	"CZ"	"1"
"523"	"2"	"2"	"2"	"E"	2	3	"incon_l"	"c"	"c"	"1"	0.413282	"E"	0	0	2	0	0.4342886	-0.0210066	"Flanker"	"Incong"	"E.W"	"CZ"	"1"
"524"	"2"	"2"	"2"	"E"	2	4	"incon_r"	"n"	"n"	"1"	0.442175	"E"	0	0	2	0	0.4127704	0.0294045999999999	"Flanker"	"Incong"	"E.W"	"CZ"	"1"
"525"	"2"	"2"	"2"	"E"	2	5	"cong_l"	"c"	"c"	"1"	0.403747	"E"	0	0	2	0	0.3788551	0.0248919000000001	"Flanker"	"Cong"	"E.W"	"CZ"	"1"
"526"	"2"	"2"	"2"	"SE"	2	6	"cong_l"	"c"	"c"	"1"	0.434067	"SE"	0	0	2	0	0.3788551	0.0552119000000001	"Flanker"	"Cong"	"NW.SE"	"CZ"	"1"
"527"	"2"	"2"	"2"	"SE"	2	7	"incon_l"	"c"	"c"	"1"	0.42976	"SE"	0	0	2	0	0.4342886	-0.00452860000000005	"Flanker"	"Incong"	"NW.SE"	"CZ"	"1"
"528"	"2"	"2"	"2"	"SE"	2	8	"cong_r"	"n"	"n"	"1"	0.395339	"SE"	0	0	2	0	0.4074729	-0.0121339	"Flanker"	"Cong"	"NW.SE"	"CZ"	"1"
"529"	"2"	"2"	"2"	"SE"	2	9	"cong_r"	"n"	"n"	"1"	0.394822	"SE"	0	0	2	0	0.4074729	-0.0126509	"Flanker"	"Cong"	"NW.SE"	"CZ"	"1"
"530"	"2"	"2"	"2"	"SE"	2	10	"incon_r"	"n"	"c"	"0"	0.33037	"SE"	0	0	2	0	0.4127704	-0.0824004	"Flanker"	"Incong"	"NW.SE"	"CZ"	"1"
"531"	"2"	"2"	"2"	"NE"	2	11	"incon_r"	"n"	"n"	"1"	0.406371	"NE"	0	0	2	0	0.4127704	-0.00639940000000006	"Flanker"	"Incong"	"NE.SW"	"CZ"	"1"
"532"	"2"	"2"	"2"	"NE"	2	12	"cong_l"	"c"	"c"	"1"	0.320176	"NE"	0	0	2	0	0.3788551	-0.0586790999999999	"Flanker"	"Cong"	"NE.SW"	"CZ"	"1"
"533"	"2"	"2"	"2"	"NE"	2	13	"cong_r"	"n"	"n"	"1"	0.346998	"NE"	0	0	2	0	0.4074729	-0.0604749	"Flanker"	"Cong"	"NE.SW"	"CZ"	"1"
"534"	"2"	"2"	"2"	"NE"	2	14	"cong_l"	"c"	"c"	"1"	0.34268	"NE"	0	0	2	0	0.3788551	-0.0361750999999999	"Flanker"	"Cong"	"NE.SW"	"CZ"	"1"
"535"	"2"	"2"	"2"	"NE"	2	15	"incon_l"	"c"	"c"	"1"	0.368091	"NE"	0	0	2	0	0.4342886	-0.0661976	"Flanker"	"Incong"	"NE.SW"	"CZ"	"1"
"536"	"2"	"2"	"2"	"S"	2	16	"cong_r"	"n"	"n"	"1"	0.399867	"S"	0	0	2	0	0.4074729	-0.0076059	"Flanker"	"Cong"	"N.S"	"CZ"	"1"
"537"	"2"	"2"	"2"	"S"	2	17	"incon_r"	"n"	"n"	"1"	0.363455	"S"	0	0	2	0	0.4127704	-0.0493154000000001	"Flanker"	"Incong"	"N.S"	"CZ"	"1"
"538"	"2"	"2"	"2"	"S"	2	18	"incon_l"	"c"	"n"	"0"	0.391152	"S"	0	0	2	0	0.4342886	-0.0431366	"Flanker"	"Incong"	"N.S"	"CZ"	"1"
"539"	"2"	"2"	"2"	"S"	2	19	"incon_r"	"n"	"n"	"1"	0.405536	"S"	0	0	2	0	0.4127704	-0.00723440000000003	"Flanker"	"Incong"	"N.S"	"CZ"	"1"
"540"	"2"	"2"	"2"	"S"	2	20	"cong_l"	"c"	"c"	"1"	0.488379	"S"	0	0	2	0	0.3788551	0.1095239	"Flanker"	"Cong"	"N.S"	"CZ"	"1"
"541"	"2"	"2"	"13"	"S"	3	1	"cong_r"	"n"	"n"	"1"	0.335214	"S"	0	0	2	0	0.4074729	-0.0722589	"Flanker"	"Cong"	"N.S"	"CP1.2"	"13"
"542"	"2"	"2"	"13"	"S"	3	2	"cong_l"	"c"	"c"	"1"	0.320475	"S"	0	0	2	0	0.3788551	-0.0583800999999999	"Flanker"	"Cong"	"N.S"	"CP1.2"	"13"
"543"	"2"	"2"	"13"	"S"	3	3	"cong_r"	"n"	"n"	"1"	0.31747	"S"	0	0	2	0	0.4074729	-0.0900029	"Flanker"	"Cong"	"N.S"	"CP1.2"	"13"
"544"	"2"	"2"	"13"	"S"	3	4	"incon_l"	"c"	"c"	"1"	0.345064	"S"	0	0	2	0	0.4342886	-0.0892246	"Flanker"	"Incong"	"N.S"	"CP1.2"	"13"
"545"	"2"	"2"	"13"	"S"	3	5	"incon_r"	"n"	"n"	"1"	0.419716	"S"	0	0	2	0	0.4127704	0.00694559999999994	"Flanker"	"Incong"	"N.S"	"CP1.2"	"13"
"546"	"2"	"2"	"13"	"NE"	3	6	"incon_r"	"n"	"n"	"1"	0.38566	"SW"	0	0	2	0	0.4127704	-0.0271104	"Flanker"	"Incong"	"NE.SW"	"CP1.2"	"13"
"547"	"2"	"2"	"13"	"NE"	3	7	"incon_l"	"c"	"n"	"0"	0.383448	"SW"	0	0	2	0	0.4342886	-0.0508406	"Flanker"	"Incong"	"NE.SW"	"CP1.2"	"13"
"548"	"2"	"2"	"13"	"NE"	3	8	"cong_l"	"c"	"c"	"1"	0.340113	"SW"	0	0	2	0	0.3788551	-0.0387420999999999	"Flanker"	"Cong"	"NE.SW"	"CP1.2"	"13"
"549"	"2"	"2"	"13"	"NE"	3	9	"incon_l"	"c"	"c"	"1"	0.517925	"SW"	0	0	2	0	0.4342886	0.0836363999999999	"Flanker"	"Incong"	"NE.SW"	"CP1.2"	"13"
"550"	"2"	"2"	"13"	"NE"	3	10	"cong_r"	"n"	"n"	"1"	0.385223	"SW"	0	0	2	0	0.4074729	-0.0222499	"Flanker"	"Cong"	"NE.SW"	"CP1.2"	"13"
"551"	"2"	"2"	"13"	"SE"	3	11	"incon_l"	"c"	"c"	"1"	0.45063	"SE"	0	0	2	0	0.4342886	0.0163414	"Flanker"	"Incong"	"NW.SE"	"CP1.2"	"13"
"552"	"2"	"2"	"13"	"SE"	3	12	"cong_l"	"c"	"c"	"1"	0.295445	"SE"	0	0	2	0	0.3788551	-0.0834100999999999	"Flanker"	"Cong"	"NW.SE"	"CP1.2"	"13"
"553"	"2"	"2"	"13"	"SE"	3	13	"cong_r"	"n"	"n"	"1"	0.352356	"SE"	0	0	2	0	0.4074729	-0.0551169	"Flanker"	"Cong"	"NW.SE"	"CP1.2"	"13"
"554"	"2"	"2"	"13"	"SE"	3	14	"incon_r"	"n"	"n"	"1"	0.397652	"SE"	0	0	2	0	0.4127704	-0.0151184	"Flanker"	"Incong"	"NW.SE"	"CP1.2"	"13"
"555"	"2"	"2"	"13"	"SE"	3	15	"incon_r"	"n"	"c"	"0"	0.296812	"SE"	0	0	2	0	0.4127704	-0.1159584	"Flanker"	"Incong"	"NW.SE"	"CP1.2"	"13"
"556"	"2"	"2"	"13"	"E"	3	16	"cong_l"	"c"	"c"	"1"	0.343321	"E"	0	0	2	0	0.3788551	-0.0355340999999999	"Flanker"	"Cong"	"E.W"	"CP1.2"	"13"
"557"	"2"	"2"	"13"	"E"	3	17	"incon_l"	"c"	"c"	"1"	0.413063	"E"	0	0	2	0	0.4342886	-0.0212256	"Flanker"	"Incong"	"E.W"	"CP1.2"	"13"
"558"	"2"	"2"	"13"	"E"	3	18	"cong_l"	"c"	"c"	"1"	0.347834	"E"	0	0	2	0	0.3788551	-0.0310210999999999	"Flanker"	"Cong"	"E.W"	"CP1.2"	"13"
"559"	"2"	"2"	"13"	"E"	3	19	"incon_r"	"n"	"n"	"1"	0.310419	"E"	0	0	2	0	0.4127704	-0.1023514	"Flanker"	"Incong"	"E.W"	"CP1.2"	"13"
"560"	"2"	"2"	"13"	"E"	3	20	"cong_r"	"n"	"n"	"1"	0.385291	"E"	0	0	2	0	0.4074729	-0.0221819	"Flanker"	"Cong"	"E.W"	"CP1.2"	"13"
"561"	"2"	"2"	"15"	"S"	4	1	"cong_l"	"c"	"c"	"1"	0.344076	"S"	0	0	2	0	0.3788551	-0.0347790999999999	"Flanker"	"Cong"	"N.S"	"P3.4"	"15"
"562"	"2"	"2"	"15"	"S"	4	2	"cong_r"	"n"	"n"	"1"	0.512823	"S"	0	0	2	0	0.4074729	0.1053501	"Flanker"	"Cong"	"N.S"	"P3.4"	"15"
"563"	"2"	"2"	"15"	"S"	4	3	"incon_l"	"c"	"c"	"1"	0.389119	"S"	0	0	2	0	0.4342886	-0.0451696	"Flanker"	"Incong"	"N.S"	"P3.4"	"15"
"564"	"2"	"2"	"15"	"S"	4	4	"incon_l"	"c"	"c"	"1"	0.381213	"S"	0	0	2	0	0.4342886	-0.0530756	"Flanker"	"Incong"	"N.S"	"P3.4"	"15"
"565"	"2"	"2"	"15"	"S"	4	5	"incon_r"	"n"	"c"	"0"	0.301608	"S"	0	0	2	0	0.4127704	-0.1111624	"Flanker"	"Incong"	"N.S"	"P3.4"	"15"
"566"	"2"	"2"	"15"	"NE"	4	6	"incon_r"	"n"	"n"	"1"	0.430036	"SW"	0	0	2	0	0.4127704	0.0172655999999999	"Flanker"	"Incong"	"NE.SW"	"P3.4"	"15"
"567"	"2"	"2"	"15"	"NE"	4	7	"incon_r"	"n"	"c"	"0"	0.341233	"SW"	0	0	2	0	0.4127704	-0.0715374	"Flanker"	"Incong"	"NE.SW"	"P3.4"	"15"
"568"	"2"	"2"	"15"	"NE"	4	8	"incon_l"	"c"	"n"	"0"	0.359299	"SW"	0	0	2	0	0.4342886	-0.0749896	"Flanker"	"Incong"	"NE.SW"	"P3.4"	"15"
"569"	"2"	"2"	"15"	"NE"	4	9	"cong_l"	"c"	"c"	"1"	0.393706	"SW"	0	0	2	0	0.3788551	0.0148509000000001	"Flanker"	"Cong"	"NE.SW"	"P3.4"	"15"
"570"	"2"	"2"	"15"	"NE"	4	10	"cong_r"	"n"	"n"	"1"	0.351916	"SW"	0	0	2	0	0.4074729	-0.0555569	"Flanker"	"Cong"	"NE.SW"	"P3.4"	"15"
"571"	"2"	"2"	"15"	"E"	4	11	"incon_l"	"c"	"c"	"1"	0.462166	"E"	0	0	2	0	0.4342886	0.0278774	"Flanker"	"Incong"	"E.W"	"P3.4"	"15"
"572"	"2"	"2"	"15"	"E"	4	12	"cong_l"	"c"	"c"	"1"	0.321652	"E"	0	0	2	0	0.3788551	-0.0572030999999999	"Flanker"	"Cong"	"E.W"	"P3.4"	"15"
"573"	"2"	"2"	"15"	"E"	4	13	"incon_r"	"n"	"c"	"0"	0.340192	"E"	0	0	2	0	0.4127704	-0.0725784	"Flanker"	"Incong"	"E.W"	"P3.4"	"15"
"574"	"2"	"2"	"15"	"E"	4	14	"cong_l"	"c"	"c"	"1"	0.390176	"E"	0	0	2	0	0.3788551	0.0113209000000001	"Flanker"	"Cong"	"E.W"	"P3.4"	"15"
"575"	"2"	"2"	"15"	"E"	4	15	"cong_r"	"n"	"n"	"1"	0.360373	"E"	0	0	2	0	0.4074729	-0.0470999	"Flanker"	"Cong"	"E.W"	"P3.4"	"15"
"576"	"2"	"2"	"15"	"SE"	4	16	"cong_r"	"n"	"n"	"1"	0.415939	"SE"	0	0	2	0	0.4074729	0.00846610000000003	"Flanker"	"Cong"	"NW.SE"	"P3.4"	"15"
"577"	"2"	"2"	"15"	"SE"	4	17	"incon_r"	"n"	"c"	"0"	0.298112	"SE"	0	0	2	0	0.4127704	-0.1146584	"Flanker"	"Incong"	"NW.SE"	"P3.4"	"15"
"578"	"2"	"2"	"15"	"SE"	4	18	"incon_l"	"c"	"c"	"1"	0.462643	"SE"	0	0	2	0	0.4342886	0.0283544	"Flanker"	"Incong"	"NW.SE"	"P3.4"	"15"
"579"	"2"	"2"	"15"	"SE"	4	19	"cong_r"	"n"	"n"	"1"	0.393519	"SE"	0	0	2	0	0.4074729	-0.0139539	"Flanker"	"Cong"	"NW.SE"	"P3.4"	"15"
"580"	"2"	"2"	"15"	"SE"	4	20	"cong_l"	"c"	"c"	"1"	0.346277	"SE"	0	0	2	0	0.3788551	-0.0325780999999999	"Flanker"	"Cong"	"NW.SE"	"P3.4"	"15"
"581"	"2"	"2"	"11"	"S"	5	1	"incon_r"	"n"	"n"	"1"	0.441568	"S"	1	0	3	1	0.4127704	0.0287976	"Flanker"	"Incong"	"N.S"	"C3.4"	"11"
"582"	"2"	"2"	"11"	"S"	5	2	"cong_l"	"c"	"c"	"1"	0.431925	"S"	1	0	3	1	0.3788551	0.0530699000000001	"Flanker"	"Cong"	"N.S"	"C3.4"	"11"
"583"	"2"	"2"	"11"	"S"	5	3	"incon_l"	"c"	"c"	"1"	0.564114	"S"	1	0	3	1	0.4342886	0.1298254	"Flanker"	"Incong"	"N.S"	"C3.4"	"11"
"584"	"2"	"2"	"11"	"S"	5	4	"cong_r"	"n"	"n"	"1"	0.579552	"S"	1	0	3	1	0.4074729	0.1720791	"Flanker"	"Cong"	"N.S"	"C3.4"	"11"
"585"	"2"	"2"	"11"	"S"	5	5	"cong_r"	"n"	"n"	"1"	0.366266	"S"	1	0	3	1	0.4074729	-0.0412069	"Flanker"	"Cong"	"N.S"	"C3.4"	"11"
"586"	"2"	"2"	"11"	"SE"	5	6	"incon_l"	"c"	"c"	"1"	0.421568	"SE"	0	0	3	0	0.4342886	-0.0127206	"Flanker"	"Incong"	"NW.SE"	"C3.4"	"11"
"587"	"2"	"2"	"11"	"SE"	5	7	"cong_l"	"c"	"c"	"1"	0.449712	"SE"	0	0	3	0	0.3788551	0.0708569000000001	"Flanker"	"Cong"	"NW.SE"	"C3.4"	"11"
"588"	"2"	"2"	"11"	"SE"	5	8	"cong_r"	"n"	"n"	"1"	0.460098	"SE"	0	0	3	0	0.4074729	0.0526251	"Flanker"	"Cong"	"NW.SE"	"C3.4"	"11"
"589"	"2"	"2"	"11"	"SE"	5	9	"incon_r"	"n"	"n"	"1"	0.495302	"SE"	0	0	3	0	0.4127704	0.0825316	"Flanker"	"Incong"	"NW.SE"	"C3.4"	"11"
"590"	"2"	"2"	"11"	"SE"	5	10	"incon_r"	"n"	"n"	"1"	0.580459	"SE"	0	0	3	0	0.4127704	0.1676886	"Flanker"	"Incong"	"NW.SE"	"C3.4"	"11"
"591"	"2"	"2"	"11"	"E"	5	11	"incon_r"	"n"	"n"	"1"	0.428205	"E"	1	1	2	0	0.4127704	0.0154346	"Flanker"	"Incong"	"E.W"	"C3.4"	"11"
"592"	"2"	"2"	"11"	"E"	5	12	"cong_r"	"n"	"n"	"1"	0.506665	"E"	1	1	2	0	0.4074729	0.0991921000000001	"Flanker"	"Cong"	"E.W"	"C3.4"	"11"
"593"	"2"	"2"	"11"	"E"	5	13	"cong_l"	"c"	"c"	"1"	0.523245	"E"	1	1	2	0	0.3788551	0.1443899	"Flanker"	"Cong"	"E.W"	"C3.4"	"11"
"594"	"2"	"2"	"11"	"E"	5	14	"incon_l"	"c"	"c"	"1"	0.524869	"E"	1	1	2	0	0.4342886	0.0905804	"Flanker"	"Incong"	"E.W"	"C3.4"	"11"
"595"	"2"	"2"	"11"	"E"	5	15	"cong_l"	"c"	"c"	"1"	0.558265	"E"	1	1	2	0	0.3788551	0.1794099	"Flanker"	"Cong"	"E.W"	"C3.4"	"11"
"596"	"2"	"2"	"11"	"NE"	5	16	"cong_r"	"n"	"n"	"1"	0.370706	"NE"	1	1	3	1	0.4074729	-0.0367669	"Flanker"	"Cong"	"NE.SW"	"C3.4"	"11"
"597"	"2"	"2"	"11"	"NE"	5	17	"incon_r"	"n"	"n"	"1"	0.729091	"NE"	1	1	3	1	0.4127704	0.3163206	"Flanker"	"Incong"	"NE.SW"	"C3.4"	"11"
"598"	"2"	"2"	"11"	"NE"	5	18	"incon_l"	"c"	"c"	"1"	0.547004	"NE"	1	1	3	1	0.4342886	0.1127154	"Flanker"	"Incong"	"NE.SW"	"C3.4"	"11"
"599"	"2"	"2"	"11"	"NE"	5	19	"incon_l"	"c"	"c"	"1"	0.376117	"NE"	1	1	3	1	0.4342886	-0.0581716	"Flanker"	"Incong"	"NE.SW"	"C3.4"	"11"
"600"	"2"	"2"	"11"	"NE"	5	20	"cong_l"	"c"	"c"	"1"	0.334881	"NE"	1	1	3	1	0.3788551	-0.0439740999999999	"Flanker"	"Cong"	"NE.SW"	"C3.4"	"11"
"601"	"2"	"2"	"107"	"S"	6	1	"incon_r"	"n"	"n"	"1"	0.411009	"S"	3	0	6	5	0.4127704	-0.00176140000000002	"Flanker"	"Incong"	"N.S"	"TPJ"	"107"
"602"	"2"	"2"	"107"	"S"	6	2	"incon_l"	"c"	"c"	"1"	0.440523	"S"	3	0	6	5	0.4342886	0.00623439999999997	"Flanker"	"Incong"	"N.S"	"TPJ"	"107"
"603"	"2"	"2"	"107"	"S"	6	3	"cong_l"	"c"	"c"	"1"	0.553902	"S"	3	0	6	5	0.3788551	0.1750469	"Flanker"	"Cong"	"N.S"	"TPJ"	"107"
"604"	"2"	"2"	"107"	"S"	6	4	"cong_l"	"c"	"c"	"1"	0.615189	"S"	3	0	6	5	0.3788551	0.2363339	"Flanker"	"Cong"	"N.S"	"TPJ"	"107"
"605"	"2"	"2"	"107"	"S"	6	5	"cong_r"	"n"	"n"	"1"	0.453531	"S"	3	0	6	5	0.4074729	0.0460581	"Flanker"	"Cong"	"N.S"	"TPJ"	"107"
"606"	"2"	"2"	"107"	"NE"	6	6	"incon_l"	"c"	"c"	"1"	0.480959	"SW"	3	0	6	5	0.4342886	0.0466704	"Flanker"	"Incong"	"NE.SW"	"TPJ"	"107"
"607"	"2"	"2"	"107"	"NE"	6	7	"cong_r"	"n"	"n"	"1"	0.354228	"SW"	3	0	6	5	0.4074729	-0.0532449	"Flanker"	"Cong"	"NE.SW"	"TPJ"	"107"
"608"	"2"	"2"	"107"	"NE"	6	8	"incon_r"	"n"	"n"	"1"	0.616595	"SW"	3	0	6	5	0.4127704	0.2038246	"Flanker"	"Incong"	"NE.SW"	"TPJ"	"107"
"609"	"2"	"2"	"107"	"NE"	6	9	"cong_r"	"n"	"n"	"1"	0.825877	"SW"	3	0	6	5	0.4074729	0.4184041	"Flanker"	"Cong"	"NE.SW"	"TPJ"	"107"
"610"	"2"	"2"	"107"	"NE"	6	10	"cong_l"	"c"	"c"	"1"	0.474315	"SW"	3	0	6	5	0.3788551	0.0954599000000001	"Flanker"	"Cong"	"NE.SW"	"TPJ"	"107"
"611"	"2"	"2"	"107"	"SE"	6	11	"incon_r"	"n"	"n"	"1"	0.454683	"SE"	2	2	3	1	0.4127704	0.0419126	"Flanker"	"Incong"	"NW.SE"	"TPJ"	"107"
"612"	"2"	"2"	"107"	"SE"	6	12	"incon_l"	"c"	"c"	"1"	0.504354	"SE"	2	2	3	1	0.4342886	0.0700653999999999	"Flanker"	"Incong"	"NW.SE"	"TPJ"	"107"
"613"	"2"	"2"	"107"	"SE"	6	13	"incon_r"	"n"	"n"	"1"	0.60675	"SE"	2	2	3	1	0.4127704	0.1939796	"Flanker"	"Incong"	"NW.SE"	"TPJ"	"107"
"614"	"2"	"2"	"107"	"SE"	6	14	"cong_l"	"c"	"c"	"1"	0.505523	"SE"	2	2	3	1	0.3788551	0.1266679	"Flanker"	"Cong"	"NW.SE"	"TPJ"	"107"
"615"	"2"	"2"	"107"	"SE"	6	15	"cong_r"	"n"	"n"	"1"	0.434958	"SE"	2	2	3	1	0.4074729	0.0274851	"Flanker"	"Cong"	"NW.SE"	"TPJ"	"107"
"616"	"2"	"2"	"107"	"E"	6	16	"incon_l"	"c"	"c"	"1"	0.469306	"W"	3	0	6	5	0.4342886	0.0350174	"Flanker"	"Incong"	"E.W"	"TPJ"	"107"
"617"	"2"	"2"	"107"	"E"	6	17	"cong_r"	"n"	"n"	"1"	0.601911	"W"	3	0	6	5	0.4074729	0.1944381	"Flanker"	"Cong"	"E.W"	"TPJ"	"107"
"618"	"2"	"2"	"107"	"E"	6	18	"cong_l"	"c"	"c"	"1"	0.513611	"W"	3	0	6	5	0.3788551	0.1347559	"Flanker"	"Cong"	"E.W"	"TPJ"	"107"
"619"	"2"	"2"	"107"	"E"	6	19	"incon_r"	"n"	"n"	"1"	0.511304	"W"	3	0	6	5	0.4127704	0.0985335999999999	"Flanker"	"Incong"	"E.W"	"TPJ"	"107"
"620"	"2"	"2"	"107"	"E"	6	20	"incon_l"	"c"	"c"	"1"	0.37942	"W"	3	0	6	5	0.4342886	-0.0548686	"Flanker"	"Incong"	"E.W"	"TPJ"	"107"
"621"	"2"	"2"	"8"	"S"	7	1	"cong_l"	"c"	"c"	"1"	0.398429	"S"	4	4	4	5	0.3788551	0.0195739000000001	"Flanker"	"Cong"	"N.S"	"F7.8"	"8"
"622"	"2"	"2"	"8"	"S"	7	2	"incon_r"	"n"	"n"	"1"	0.529016	"S"	4	4	4	5	0.4127704	0.1162456	"Flanker"	"Incong"	"N.S"	"F7.8"	"8"
"623"	"2"	"2"	"8"	"S"	7	3	"incon_l"	"c"	"c"	"1"	0.53919	"S"	4	4	4	5	0.4342886	0.1049014	"Flanker"	"Incong"	"N.S"	"F7.8"	"8"
"624"	"2"	"2"	"8"	"S"	7	4	"incon_r"	"n"	"n"	"1"	0.490589	"S"	4	4	4	5	0.4127704	0.0778186	"Flanker"	"Incong"	"N.S"	"F7.8"	"8"
"625"	"2"	"2"	"8"	"S"	7	5	"cong_r"	"n"	"n"	"1"	0.433241	"S"	4	4	4	5	0.4074729	0.0257681	"Flanker"	"Cong"	"N.S"	"F7.8"	"8"
"626"	"2"	"2"	"8"	"SE"	7	6	"cong_r"	"n"	"n"	"1"	0.454172	"SE"	3	3	4	1	0.4074729	0.0466991	"Flanker"	"Cong"	"NW.SE"	"F7.8"	"8"
"627"	"2"	"2"	"8"	"SE"	7	7	"incon_l"	"c"	"c"	"1"	0.482522	"SE"	3	3	4	1	0.4342886	0.0482334	"Flanker"	"Incong"	"NW.SE"	"F7.8"	"8"
"628"	"2"	"2"	"8"	"SE"	7	8	"cong_l"	"c"	"c"	"1"	0.490173	"SE"	3	3	4	1	0.3788551	0.1113179	"Flanker"	"Cong"	"NW.SE"	"F7.8"	"8"
"629"	"2"	"2"	"8"	"SE"	7	9	"cong_r"	"n"	"n"	"1"	0.390265	"SE"	3	3	4	1	0.4074729	-0.0172079	"Flanker"	"Cong"	"NW.SE"	"F7.8"	"8"
"630"	"2"	"2"	"8"	"SE"	7	10	"incon_r"	"n"	"n"	"1"	0.475879	"SE"	3	3	4	1	0.4127704	0.0631086	"Flanker"	"Incong"	"NW.SE"	"F7.8"	"8"
"631"	"2"	"2"	"8"	"E"	7	11	"incon_l"	"c"	"c"	"1"	0.436676	"W"	3	0	7	4	0.4342886	0.00238739999999998	"Flanker"	"Incong"	"E.W"	"F7.8"	"8"
"632"	"2"	"2"	"8"	"E"	7	12	"incon_r"	"n"	"n"	"1"	0.42913	"W"	3	0	7	4	0.4127704	0.0163596	"Flanker"	"Incong"	"E.W"	"F7.8"	"8"
"633"	"2"	"2"	"8"	"E"	7	13	"cong_r"	"n"	"n"	"1"	0.366426	"W"	3	0	7	4	0.4074729	-0.0410469	"Flanker"	"Cong"	"E.W"	"F7.8"	"8"
"634"	"2"	"2"	"8"	"E"	7	14	"cong_l"	"c"	"c"	"1"	0.304212	"W"	3	0	7	4	0.3788551	-0.0746430999999999	"Flanker"	"Cong"	"E.W"	"F7.8"	"8"
"635"	"2"	"2"	"8"	"E"	7	15	"incon_l"	"c"	"c"	"1"	0.365566	"W"	3	0	7	4	0.4342886	-0.0687226	"Flanker"	"Incong"	"E.W"	"F7.8"	"8"
"636"	"2"	"2"	"8"	"NE"	7	16	"cong_r"	"n"	"n"	"1"	0.438003	"NE"	4	1	7	5	0.4074729	0.0305301	"Flanker"	"Cong"	"NE.SW"	"F7.8"	"8"
"637"	"2"	"2"	"8"	"NE"	7	17	"cong_l"	"c"	"c"	"1"	0.358369	"NE"	4	1	7	5	0.3788551	-0.0204860999999999	"Flanker"	"Cong"	"NE.SW"	"F7.8"	"8"
"638"	"2"	"2"	"8"	"NE"	7	18	"cong_l"	"c"	"c"	"1"	0.381487	"NE"	4	1	7	5	0.3788551	0.00263190000000013	"Flanker"	"Cong"	"NE.SW"	"F7.8"	"8"
"639"	"2"	"2"	"8"	"NE"	7	19	"incon_r"	"n"	"c"	"0"	0.594107	"NE"	4	1	7	5	0.4127704	0.1813366	"Flanker"	"Incong"	"NE.SW"	"F7.8"	"8"
"640"	"2"	"2"	"8"	"NE"	7	20	"incon_l"	"c"	"c"	"1"	0.790092	"NE"	4	1	7	5	0.4342886	0.3558034	"Flanker"	"Incong"	"NE.SW"	"F7.8"	"8"
"641"	"2"	"2"	"6"	"E"	8	1	"cong_l"	"c"	"c"	"1"	0.349747	"E"	1	1	2	0	0.3788551	-0.0291080999999999	"Flanker"	"Cong"	"E.W"	"AF"	"6"
"642"	"2"	"2"	"6"	"E"	8	2	"incon_l"	"c"	"c"	"1"	0.390275	"E"	1	1	2	0	0.4342886	-0.0440136	"Flanker"	"Incong"	"E.W"	"AF"	"6"
"643"	"2"	"2"	"6"	"E"	8	3	"incon_r"	"n"	"n"	"1"	0.414985	"E"	1	1	2	0	0.4127704	0.00221459999999996	"Flanker"	"Incong"	"E.W"	"AF"	"6"
"644"	"2"	"2"	"6"	"E"	8	4	"cong_r"	"n"	"n"	"1"	0.382218	"E"	1	1	2	0	0.4074729	-0.0252549	"Flanker"	"Cong"	"E.W"	"AF"	"6"
"645"	"2"	"2"	"6"	"E"	8	5	"cong_l"	"c"	"c"	"1"	0.3054	"E"	1	1	2	0	0.3788551	-0.0734550999999999	"Flanker"	"Cong"	"E.W"	"AF"	"6"
"646"	"2"	"2"	"6"	"SE"	8	6	"incon_l"	"c"	"c"	"1"	0.491983	"SE"	1	1	2	0	0.4342886	0.0576944	"Flanker"	"Incong"	"NW.SE"	"AF"	"6"
"647"	"2"	"2"	"6"	"SE"	8	7	"incon_l"	"c"	"c"	"1"	0.487429	"SE"	1	1	2	0	0.4342886	0.0531404	"Flanker"	"Incong"	"NW.SE"	"AF"	"6"
"648"	"2"	"2"	"6"	"SE"	8	8	"cong_r"	"n"	"n"	"1"	0.40948	"SE"	1	1	2	0	0.4074729	0.00200710000000004	"Flanker"	"Cong"	"NW.SE"	"AF"	"6"
"649"	"2"	"2"	"6"	"SE"	8	9	"cong_l"	"c"	"c"	"1"	0.561847	"SE"	1	1	2	0	0.3788551	0.1829919	"Flanker"	"Cong"	"NW.SE"	"AF"	"6"
"650"	"2"	"2"	"6"	"SE"	8	10	"incon_r"	"n"	"n"	"1"	0.508074	"SE"	1	1	2	0	0.4127704	0.0953036	"Flanker"	"Incong"	"NW.SE"	"AF"	"6"
"651"	"2"	"2"	"6"	"S"	8	11	"incon_l"	"c"	"c"	"1"	0.570397	"S"	1	1	2	0	0.4342886	0.1361084	"Flanker"	"Incong"	"N.S"	"AF"	"6"
"652"	"2"	"2"	"6"	"S"	8	12	"incon_r"	"n"	"n"	"1"	0.365445	"S"	1	1	2	0	0.4127704	-0.0473254	"Flanker"	"Incong"	"N.S"	"AF"	"6"
"653"	"2"	"2"	"6"	"S"	8	13	"incon_r"	"n"	"c"	"0"	0.445618	"S"	1	1	2	0	0.4127704	0.0328476	"Flanker"	"Incong"	"N.S"	"AF"	"6"
"654"	"2"	"2"	"6"	"S"	8	14	"cong_l"	"c"	"c"	"1"	0.407419	"S"	1	1	2	0	0.3788551	0.0285639000000001	"Flanker"	"Cong"	"N.S"	"AF"	"6"
"655"	"2"	"2"	"6"	"S"	8	15	"cong_r"	"n"	"n"	"1"	0.317856	"S"	1	1	2	0	0.4074729	-0.0896168999999999	"Flanker"	"Cong"	"N.S"	"AF"	"6"
"656"	"2"	"2"	"6"	"NE"	8	16	"cong_l"	"c"	"c"	"1"	0.36011	"NE"	1	1	3	0	0.3788551	-0.0187450999999999	"Flanker"	"Cong"	"NE.SW"	"AF"	"6"
"657"	"2"	"2"	"6"	"NE"	8	17	"cong_r"	"n"	"n"	"1"	0.405774	"NE"	1	1	3	0	0.4074729	-0.00169889999999995	"Flanker"	"Cong"	"NE.SW"	"AF"	"6"
"658"	"2"	"2"	"6"	"NE"	8	18	"cong_r"	"n"	"n"	"1"	0.332872	"NE"	1	1	3	0	0.4074729	-0.0746009	"Flanker"	"Cong"	"NE.SW"	"AF"	"6"
"659"	"2"	"2"	"6"	"NE"	8	19	"incon_r"	"n"	"c"	"0"	0.300151	"NE"	1	1	3	0	0.4127704	-0.1126194	"Flanker"	"Incong"	"NE.SW"	"AF"	"6"
"660"	"2"	"2"	"6"	"NE"	8	20	"incon_l"	"c"	"c"	"1"	0.413787	"NE"	1	1	3	0	0.4342886	-0.0205016	"Flanker"	"Incong"	"NE.SW"	"AF"	"6"
"661"	"2"	"2"	"12"	"S"	9	1	"incon_r"	"n"	"n"	"1"	0.482772	"S"	4	1	7	5	0.4127704	0.0700015999999999	"Flanker"	"Incong"	"N.S"	"T7.8"	"12"
"662"	"2"	"2"	"12"	"S"	9	2	"cong_l"	"c"	"c"	"1"	0.405116	"S"	4	1	7	5	0.3788551	0.0262609000000001	"Flanker"	"Cong"	"N.S"	"T7.8"	"12"
"663"	"2"	"2"	"12"	"S"	9	3	"cong_r"	"n"	"n"	"1"	0.482732	"S"	4	1	7	5	0.4074729	0.0752591	"Flanker"	"Cong"	"N.S"	"T7.8"	"12"
"664"	"2"	"2"	"12"	"S"	9	4	"incon_r"	"n"	"n"	"1"	0.525793	"S"	4	1	7	5	0.4127704	0.1130226	"Flanker"	"Incong"	"N.S"	"T7.8"	"12"
"665"	"2"	"2"	"12"	"S"	9	5	"incon_l"	"c"	"c"	"1"	0.634396	"S"	4	1	7	5	0.4342886	0.2001074	"Flanker"	"Incong"	"N.S"	"T7.8"	"12"
"666"	"2"	"2"	"12"	"NE"	9	6	"cong_l"	"c"	"c"	"1"	0.401081	"SW"	2	0	4	5	0.3788551	0.0222259000000001	"Flanker"	"Cong"	"NE.SW"	"T7.8"	"12"
"667"	"2"	"2"	"12"	"NE"	9	7	"incon_l"	"c"	"c"	"1"	0.561097	"SW"	2	0	4	5	0.4342886	0.1268084	"Flanker"	"Incong"	"NE.SW"	"T7.8"	"12"
"668"	"2"	"2"	"12"	"NE"	9	8	"incon_l"	"c"	"c"	"1"	0.762206	"SW"	2	0	4	5	0.4342886	0.3279174	"Flanker"	"Incong"	"NE.SW"	"T7.8"	"12"
"669"	"2"	"2"	"12"	"NE"	9	9	"cong_r"	"n"	"c"	"0"	0.743309	"SW"	2	0	4	5	0.4074729	0.3358361	"Flanker"	"Cong"	"NE.SW"	"T7.8"	"12"
"670"	"2"	"2"	"12"	"NE"	9	10	"incon_r"	"n"	"n"	"1"	0.704227	"SW"	2	0	4	5	0.4127704	0.2914566	"Flanker"	"Incong"	"NE.SW"	"T7.8"	"12"
"671"	"2"	"2"	"12"	"SE"	9	11	"incon_r"	"n"	"n"	"1"	0.41437	"SE"	2	2	4	5	0.4127704	0.00159959999999998	"Flanker"	"Incong"	"NW.SE"	"T7.8"	"12"
"672"	"2"	"2"	"12"	"SE"	9	12	"cong_l"	"c"	"c"	"1"	0.590781	"SE"	2	2	4	5	0.3788551	0.2119259	"Flanker"	"Cong"	"NW.SE"	"T7.8"	"12"
"673"	"2"	"2"	"12"	"SE"	9	13	"cong_r"	"n"	"n"	"1"	0.568492	"SE"	2	2	4	5	0.4074729	0.1610191	"Flanker"	"Cong"	"NW.SE"	"T7.8"	"12"
"674"	"2"	"2"	"12"	"SE"	9	14	"cong_r"	"n"	"n"	"1"	0.544776	"SE"	2	2	4	5	0.4074729	0.1373031	"Flanker"	"Cong"	"NW.SE"	"T7.8"	"12"
"675"	"2"	"2"	"12"	"SE"	9	15	"incon_l"	"c"	"c"	"1"	0.577279	"SE"	2	2	4	5	0.4342886	0.1429904	"Flanker"	"Incong"	"NW.SE"	"T7.8"	"12"
"676"	"2"	"2"	"12"	"E"	9	16	"incon_l"	"c"	"c"	"1"	0.456037	"W"	1	0	4	5	0.4342886	0.0217484	"Flanker"	"Incong"	"E.W"	"T7.8"	"12"
"677"	"2"	"2"	"12"	"E"	9	17	"cong_l"	"c"	"c"	"1"	0.387788	"W"	1	0	4	5	0.3788551	0.00893290000000013	"Flanker"	"Cong"	"E.W"	"T7.8"	"12"
"678"	"2"	"2"	"12"	"E"	9	18	"incon_r"	"n"	"n"	"1"	0.421207	"W"	1	0	4	5	0.4127704	0.00843659999999996	"Flanker"	"Incong"	"E.W"	"T7.8"	"12"
"679"	"2"	"2"	"12"	"E"	9	19	"cong_l"	"c"	"c"	"1"	0.629623	"W"	1	0	4	5	0.3788551	0.2507679	"Flanker"	"Cong"	"E.W"	"T7.8"	"12"
"680"	"2"	"2"	"12"	"E"	9	20	"cong_r"	"n"	"n"	"1"	0.752216	"W"	1	0	4	5	0.4074729	0.3447431	"Flanker"	"Cong"	"E.W"	"T7.8"	"12"
"681"	"2"	"2"	"18"	"S"	10	1	"incon_r"	"n"	"n"	"1"	0.492956	"S"	0	0	2	0	0.4127704	0.0801856	"Flanker"	"Incong"	"N.S"	"O1.2"	"18"
"682"	"2"	"2"	"18"	"S"	10	2	"cong_r"	"n"	"n"	"1"	0.363468	"S"	0	0	2	0	0.4074729	-0.0440049	"Flanker"	"Cong"	"N.S"	"O1.2"	"18"
"683"	"2"	"2"	"18"	"S"	10	3	"incon_l"	"c"	"c"	"1"	0.336578	"S"	0	0	2	0	0.4342886	-0.0977106	"Flanker"	"Incong"	"N.S"	"O1.2"	"18"
"684"	"2"	"2"	"18"	"S"	10	4	"incon_l"	"c"	"c"	"1"	0.387813	"S"	0	0	2	0	0.4342886	-0.0464756	"Flanker"	"Incong"	"N.S"	"O1.2"	"18"
"685"	"2"	"2"	"18"	"S"	10	5	"cong_l"	"c"	"c"	"1"	0.34858	"S"	0	0	2	0	0.3788551	-0.0302750999999999	"Flanker"	"Cong"	"N.S"	"O1.2"	"18"
"686"	"2"	"2"	"18"	"NE"	10	6	"cong_l"	"c"	"c"	"1"	0.300125	"NE"	0	0	2	0	0.3788551	-0.0787300999999999	"Flanker"	"Cong"	"NE.SW"	"O1.2"	"18"
"687"	"2"	"2"	"18"	"NE"	10	7	"incon_r"	"n"	"n"	"1"	0.405613	"NE"	0	0	2	0	0.4127704	-0.00715740000000004	"Flanker"	"Incong"	"NE.SW"	"O1.2"	"18"
"688"	"2"	"2"	"18"	"NE"	10	8	"cong_r"	"n"	"n"	"1"	0.319653	"NE"	0	0	2	0	0.4074729	-0.0878199	"Flanker"	"Cong"	"NE.SW"	"O1.2"	"18"
"689"	"2"	"2"	"18"	"NE"	10	9	"incon_r"	"n"	"n"	"1"	0.309757	"NE"	0	0	2	0	0.4127704	-0.1030134	"Flanker"	"Incong"	"NE.SW"	"O1.2"	"18"
"690"	"2"	"2"	"18"	"NE"	10	10	"incon_l"	"c"	"n"	"0"	0.347755	"NE"	0	0	2	0	0.4342886	-0.0865336	"Flanker"	"Incong"	"NE.SW"	"O1.2"	"18"
"691"	"2"	"2"	"18"	"E"	10	11	"incon_r"	"n"	"n"	"1"	0.565611	"E"	0	0	2	0	0.4127704	0.1528406	"Flanker"	"Incong"	"E.W"	"O1.2"	"18"
"692"	"2"	"2"	"18"	"E"	10	12	"cong_r"	"n"	"n"	"1"	0.341847	"E"	0	0	2	0	0.4074729	-0.0656259	"Flanker"	"Cong"	"E.W"	"O1.2"	"18"
"693"	"2"	"2"	"18"	"E"	10	13	"incon_l"	"c"	"c"	"1"	0.373696	"E"	0	0	2	0	0.4342886	-0.0605926000000001	"Flanker"	"Incong"	"E.W"	"O1.2"	"18"
"694"	"2"	"2"	"18"	"E"	10	14	"cong_l"	"c"	"c"	"1"	0.326039	"E"	0	0	2	0	0.3788551	-0.0528160999999999	"Flanker"	"Cong"	"E.W"	"O1.2"	"18"
"695"	"2"	"2"	"18"	"E"	10	15	"cong_r"	"n"	"n"	"1"	0.292561	"E"	0	0	2	0	0.4074729	-0.1149119	"Flanker"	"Cong"	"E.W"	"O1.2"	"18"
"696"	"2"	"2"	"18"	"SE"	10	16	"incon_l"	"c"	"c"	"1"	0.418994	"SE"	0	1	2	0	0.4342886	-0.0152946	"Flanker"	"Incong"	"NW.SE"	"O1.2"	"18"
"697"	"2"	"2"	"18"	"SE"	10	17	"incon_r"	"n"	"n"	"1"	0.393854	"SE"	0	1	2	0	0.4127704	-0.0189164000000001	"Flanker"	"Incong"	"NW.SE"	"O1.2"	"18"
"698"	"2"	"2"	"18"	"SE"	10	18	"cong_r"	"n"	"n"	"1"	0.34288	"SE"	0	1	2	0	0.4074729	-0.0645929	"Flanker"	"Cong"	"NW.SE"	"O1.2"	"18"
"699"	"2"	"2"	"18"	"SE"	10	19	"cong_l"	"c"	"c"	"1"	0.309849	"SE"	0	1	2	0	0.3788551	-0.0690060999999999	"Flanker"	"Cong"	"NW.SE"	"O1.2"	"18"
"700"	"2"	"2"	"18"	"SE"	10	20	"cong_l"	"c"	"c"	"1"	0.269778	"SE"	0	1	2	0	0.3788551	-0.1090771	"Flanker"	"Cong"	"NW.SE"	"O1.2"	"18"
"701"	"2"	"2"	"4"	"NE"	11	1	"cong_r"	"n"	"n"	"1"	0.415511	"NE"	0	0	2	0	0.4074729	0.00803810000000005	"Flanker"	"Cong"	"NE.SW"	"OZ"	"4"
"702"	"2"	"2"	"4"	"NE"	11	2	"cong_l"	"c"	"c"	"1"	0.282811	"NE"	0	0	2	0	0.3788551	-0.0960440999999999	"Flanker"	"Cong"	"NE.SW"	"OZ"	"4"
"703"	"2"	"2"	"4"	"NE"	11	3	"cong_r"	"n"	"n"	"1"	0.277228	"NE"	0	0	2	0	0.4074729	-0.1302449	"Flanker"	"Cong"	"NE.SW"	"OZ"	"4"
"704"	"2"	"2"	"4"	"NE"	11	4	"incon_l"	"c"	"n"	"0"	0.349043	"NE"	0	0	2	0	0.4342886	-0.0852456	"Flanker"	"Incong"	"NE.SW"	"OZ"	"4"
"705"	"2"	"2"	"4"	"NE"	11	5	"incon_r"	"n"	"n"	"1"	0.405004	"NE"	0	0	2	0	0.4127704	-0.00776640000000006	"Flanker"	"Incong"	"NE.SW"	"OZ"	"4"
"706"	"2"	"2"	"4"	"SE"	11	6	"cong_r"	"n"	"n"	"1"	0.33795	"SE"	0	1	2	0	0.4074729	-0.0695229	"Flanker"	"Cong"	"NW.SE"	"OZ"	"4"
"707"	"2"	"2"	"4"	"SE"	11	7	"cong_l"	"c"	"c"	"1"	0.311448	"SE"	0	1	2	0	0.3788551	-0.0674070999999999	"Flanker"	"Cong"	"NW.SE"	"OZ"	"4"
"708"	"2"	"2"	"4"	"SE"	11	8	"cong_l"	"c"	"c"	"1"	0.352618	"SE"	0	1	2	0	0.3788551	-0.0262370999999999	"Flanker"	"Cong"	"NW.SE"	"OZ"	"4"
"709"	"2"	"2"	"4"	"SE"	11	9	"incon_r"	"n"	"n"	"1"	0.301869	"SE"	0	1	2	0	0.4127704	-0.1109014	"Flanker"	"Incong"	"NW.SE"	"OZ"	"4"
"710"	"2"	"2"	"4"	"SE"	11	10	"incon_l"	"c"	"c"	"1"	0.357945	"SE"	0	1	2	0	0.4342886	-0.0763436	"Flanker"	"Incong"	"NW.SE"	"OZ"	"4"
"711"	"2"	"2"	"4"	"S"	11	11	"incon_r"	"n"	"n"	"1"	0.404127	"S"	1	1	2	0	0.4127704	-0.00864340000000002	"Flanker"	"Incong"	"N.S"	"OZ"	"4"
"712"	"2"	"2"	"4"	"S"	11	12	"incon_r"	"n"	"n"	"1"	0.401069	"S"	1	1	2	0	0.4127704	-0.0117014	"Flanker"	"Incong"	"N.S"	"OZ"	"4"
"713"	"2"	"2"	"4"	"S"	11	13	"incon_l"	"c"	"c"	"1"	0.347578	"S"	1	1	2	0	0.4342886	-0.0867106	"Flanker"	"Incong"	"N.S"	"OZ"	"4"
"714"	"2"	"2"	"4"	"S"	11	14	"cong_r"	"n"	"n"	"1"	0.290885	"S"	1	1	2	0	0.4074729	-0.1165879	"Flanker"	"Cong"	"N.S"	"OZ"	"4"
"715"	"2"	"2"	"4"	"S"	11	15	"cong_l"	"c"	"c"	"1"	0.352225	"S"	1	1	2	0	0.3788551	-0.0266300999999999	"Flanker"	"Cong"	"N.S"	"OZ"	"4"
"716"	"2"	"2"	"4"	"E"	11	16	"incon_r"	"n"	"c"	"0"	0.444824	"E"	0	0	2	0	0.4127704	0.0320536	"Flanker"	"Incong"	"E.W"	"OZ"	"4"
"717"	"2"	"2"	"4"	"E"	11	17	"incon_l"	"c"	"c"	"1"	0.5678	"E"	0	0	2	0	0.4342886	0.1335114	"Flanker"	"Incong"	"E.W"	"OZ"	"4"
"718"	"2"	"2"	"4"	"E"	11	18	"cong_l"	"c"	"c"	"1"	0.349767	"E"	0	0	2	0	0.3788551	-0.0290880999999999	"Flanker"	"Cong"	"E.W"	"OZ"	"4"
"719"	"2"	"2"	"4"	"E"	11	19	"incon_l"	"c"	"c"	"1"	0.451114	"E"	0	0	2	0	0.4342886	0.0168254	"Flanker"	"Incong"	"E.W"	"OZ"	"4"
"720"	"2"	"2"	"4"	"E"	11	20	"cong_r"	"n"	"n"	"1"	0.37449	"E"	0	0	2	0	0.4074729	-0.0329829	"Flanker"	"Cong"	"E.W"	"OZ"	"4"
"721"	"2"	"2"	"14"	"NE"	12	1	"cong_l"	"c"	"c"	"1"	0.352279	"NE"	0	0	2	0	0.3788551	-0.0265760999999999	"Flanker"	"Cong"	"NE.SW"	"CP5.6"	"14"
"722"	"2"	"2"	"14"	"NE"	12	2	"cong_r"	"n"	"n"	"1"	0.312243	"NE"	0	0	2	0	0.4074729	-0.0952299	"Flanker"	"Cong"	"NE.SW"	"CP5.6"	"14"
"723"	"2"	"2"	"14"	"NE"	12	3	"incon_r"	"n"	"c"	"0"	0.332234	"NE"	0	0	2	0	0.4127704	-0.0805364000000001	"Flanker"	"Incong"	"NE.SW"	"CP5.6"	"14"
"724"	"2"	"2"	"14"	"NE"	12	4	"incon_l"	"c"	"c"	"1"	0.404484	"NE"	0	0	2	0	0.4342886	-0.0298046	"Flanker"	"Incong"	"NE.SW"	"CP5.6"	"14"
"725"	"2"	"2"	"14"	"NE"	12	5	"incon_l"	"c"	"c"	"1"	0.370187	"NE"	0	0	2	0	0.4342886	-0.0641016	"Flanker"	"Incong"	"NE.SW"	"CP5.6"	"14"
"726"	"2"	"2"	"14"	"SE"	12	6	"incon_r"	"n"	"n"	"1"	0.449704	"SE"	1	0	4	2	0.4127704	0.0369336	"Flanker"	"Incong"	"NW.SE"	"CP5.6"	"14"
"727"	"2"	"2"	"14"	"SE"	12	7	"cong_l"	"c"	"c"	"1"	0.406657	"SE"	1	0	4	2	0.3788551	0.0278019000000001	"Flanker"	"Cong"	"NW.SE"	"CP5.6"	"14"
"728"	"2"	"2"	"14"	"SE"	12	8	"cong_l"	"c"	"c"	"1"	0.490035	"SE"	1	0	4	2	0.3788551	0.1111799	"Flanker"	"Cong"	"NW.SE"	"CP5.6"	"14"
"729"	"2"	"2"	"14"	"SE"	12	9	"cong_r"	"n"	"n"	"1"	0.623334	"SE"	1	0	4	2	0.4074729	0.2158611	"Flanker"	"Cong"	"NW.SE"	"CP5.6"	"14"
"730"	"2"	"2"	"14"	"SE"	12	10	"incon_l"	"c"	"c"	"1"	0.478336	"SE"	1	0	4	2	0.4342886	0.0440474	"Flanker"	"Incong"	"NW.SE"	"CP5.6"	"14"
"731"	"2"	"2"	"14"	"S"	12	11	"cong_r"	"n"	"n"	"1"	0.372523	"S"	0	0	3	3	0.4074729	-0.0349499	"Flanker"	"Cong"	"N.S"	"CP5.6"	"14"
"732"	"2"	"2"	"14"	"S"	12	12	"incon_l"	"c"	"c"	"1"	0.368623	"S"	0	0	3	3	0.4342886	-0.0656656	"Flanker"	"Incong"	"N.S"	"CP5.6"	"14"
"733"	"2"	"2"	"14"	"S"	12	13	"cong_r"	"n"	"n"	"1"	0.316157	"S"	0	0	3	3	0.4074729	-0.0913158999999999	"Flanker"	"Cong"	"N.S"	"CP5.6"	"14"
"734"	"2"	"2"	"14"	"S"	12	14	"cong_l"	"c"	"c"	"1"	0.316056	"S"	0	0	3	3	0.3788551	-0.0627990999999999	"Flanker"	"Cong"	"N.S"	"CP5.6"	"14"
"735"	"2"	"2"	"14"	"S"	12	15	"incon_r"	"n"	"n"	"1"	0.363569	"S"	0	0	3	3	0.4127704	-0.0492014000000001	"Flanker"	"Incong"	"N.S"	"CP5.6"	"14"
"736"	"2"	"2"	"14"	"E"	12	16	"incon_l"	"c"	"n"	"0"	0.382904	"E"	0	0	3	3	0.4342886	-0.0513846	"Flanker"	"Incong"	"E.W"	"CP5.6"	"14"
"737"	"2"	"2"	"14"	"E"	12	17	"incon_r"	"n"	"n"	"1"	0.431815	"E"	0	0	3	3	0.4127704	0.0190446	"Flanker"	"Incong"	"E.W"	"CP5.6"	"14"
"738"	"2"	"2"	"14"	"E"	12	18	"cong_r"	"n"	"n"	"1"	0.330442	"E"	0	0	3	3	0.4074729	-0.0770309	"Flanker"	"Cong"	"E.W"	"CP5.6"	"14"
"739"	"2"	"2"	"14"	"E"	12	19	"incon_r"	"n"	"n"	"1"	0.482573	"E"	0	0	3	3	0.4127704	0.0698025999999999	"Flanker"	"Incong"	"E.W"	"CP5.6"	"14"
"740"	"2"	"2"	"14"	"E"	12	20	"cong_l"	"c"	"c"	"1"	0.529984	"E"	0	0	3	3	0.3788551	0.1511289	"Flanker"	"Cong"	"E.W"	"CP5.6"	"14"
"741"	"2"	"2"	"109"	"S"	13	1	"cong_r"	"n"	"n"	"1"	0.566981	"S"	7	0	10	5	0.4074729	0.1595081	"Flanker"	"Cong"	"N.S"	"ATL"	"109"
"742"	"2"	"2"	"109"	"S"	13	2	"cong_l"	"c"	"c"	"1"	1.269995	"S"	7	0	10	5	0.3788551	0.8911399	"Flanker"	"Cong"	"N.S"	"ATL"	"109"
"743"	"2"	"2"	"109"	"S"	13	3	"incon_r"	"n"	"n"	"1"	0.561892	"S"	7	0	10	5	0.4127704	0.1491216	"Flanker"	"Incong"	"N.S"	"ATL"	"109"
"744"	"2"	"2"	"109"	"S"	13	4	"cong_l"	"c"	"c"	"1"	0.390549	"S"	7	0	10	5	0.3788551	0.0116939000000001	"Flanker"	"Cong"	"N.S"	"ATL"	"109"
"745"	"2"	"2"	"109"	"S"	13	5	"incon_l"	"c"	"c"	"1"	0.526557	"S"	7	0	10	5	0.4342886	0.0922684	"Flanker"	"Incong"	"N.S"	"ATL"	"109"
"746"	"2"	"2"	"109"	"SE"	13	6	"incon_r"	"n"	"n"	"1"	0.499103	"SE"	6	3	9	5	0.4127704	0.0863326	"Flanker"	"Incong"	"NW.SE"	"ATL"	"109"
"747"	"2"	"2"	"109"	"SE"	13	7	"incon_l"	"c"	"c"	"1"	0.509169	"SE"	6	3	9	5	0.4342886	0.0748804	"Flanker"	"Incong"	"NW.SE"	"ATL"	"109"
"748"	"2"	"2"	"109"	"SE"	13	8	"cong_r"	"n"	"n"	"1"	0.591453	"SE"	6	3	9	5	0.4074729	0.1839801	"Flanker"	"Cong"	"NW.SE"	"ATL"	"109"
"749"	"2"	"2"	"109"	"SE"	13	9	"incon_r"	"n"	""	"0"	0.561829	"SE"	6	3	9	5	0.4127704	0.1490586	"Flanker"	"Incong"	"NW.SE"	"ATL"	"109"
"750"	"2"	"2"	"109"	"SE"	13	10	"cong_l"	"c"	"c"	"1"	0.587796	"SE"	6	3	9	5	0.3788551	0.2089409	"Flanker"	"Cong"	"NW.SE"	"ATL"	"109"
"751"	"2"	"2"	"109"	"NE"	13	11	"cong_l"	"c"	"c"	"1"	0.503064	"SW"	3	0	6	5	0.3788551	0.1242089	"Flanker"	"Cong"	"NE.SW"	"ATL"	"109"
"752"	"2"	"2"	"109"	"NE"	13	12	"cong_r"	"n"	"n"	"1"	0.340343	"SW"	3	0	6	5	0.4074729	-0.0671299	"Flanker"	"Cong"	"NE.SW"	"ATL"	"109"
"753"	"2"	"2"	"109"	"NE"	13	13	"incon_l"	"c"	"c"	"1"	0.469882	"SW"	3	0	6	5	0.4342886	0.0355934	"Flanker"	"Incong"	"NE.SW"	"ATL"	"109"
"754"	"2"	"2"	"109"	"NE"	13	14	"incon_r"	"n"	"n"	"1"	0.529747	"SW"	3	0	6	5	0.4127704	0.1169766	"Flanker"	"Incong"	"NE.SW"	"ATL"	"109"
"755"	"2"	"2"	"109"	"NE"	13	15	"incon_l"	"c"	"c"	"1"	0.355463	"SW"	3	0	6	5	0.4342886	-0.0788256000000001	"Flanker"	"Incong"	"NE.SW"	"ATL"	"109"
"756"	"2"	"2"	"109"	"E"	13	16	"cong_r"	"n"	"n"	"1"	0.408548	"W"	4	4	5	5	0.4074729	0.00107510000000005	"Flanker"	"Cong"	"E.W"	"ATL"	"109"
"757"	"2"	"2"	"109"	"E"	13	17	"incon_r"	"n"	"n"	"1"	0.48635	"W"	4	4	5	5	0.4127704	0.0735796	"Flanker"	"Incong"	"E.W"	"ATL"	"109"
"758"	"2"	"2"	"109"	"E"	13	18	"cong_l"	"c"	"c"	"1"	0.458723	"W"	4	4	5	5	0.3788551	0.0798679000000001	"Flanker"	"Cong"	"E.W"	"ATL"	"109"
"759"	"2"	"2"	"109"	"E"	13	19	"cong_r"	"n"	"n"	"1"	0.403602	"W"	4	4	5	5	0.4074729	-0.00387089999999995	"Flanker"	"Cong"	"E.W"	"ATL"	"109"
